ContinueResp.keys,ContinueResp.rt,WelcomeContinueKey2.keys,WelcomeContinueKey2.rt,PracticeRespKey2.keys,PracticeRespKey2.rt,Practice_resp.keys,Practice_resp.rt,PracticeTrials.thisRepN,PracticeTrials.thisTrialN,PracticeTrials.thisN,PracticeTrials.thisIndex,PracticeTrials.ran,SoundFile,Type,Correct,participant,date,expName,psychopyVersion,OS,frameRate,StartTast.keys,StartTast.rt,MST_resp.keys,MST_resp.corr,MST_resp.rt,trials.thisRepN,trials.thisTrialN,trials.thisN,trials.thisIndex,trials.ran,File,WordCorrect,Correct_type,WordType,Condition,WordTask.thisRepN,WordTask.thisTrialN,WordTask.thisN,WordTask.thisIndex,WordTask.ran,End1Cont.keys,End1Cont.rt,key_resp.keys,key_resp.rt,PracticeRespKey2II.keys,PracticeRespKey2II.rt,PracticeSoundKey.keys,PracticeSoundKey.rt,SoundPracticeLoop.thisRepN,SoundPracticeLoop.thisTrialN,SoundPracticeLoop.thisN,SoundPracticeLoop.thisIndex,SoundPracticeLoop.ran,SoundMST_File,SoundCorrect,Correct2,SoundType,Trial,MSTSoundStrtKey.keys,MSTSoundStrtKey.rt,MSTSoundKey.keys,MSTSoundKey.corr,MSTSoundKey.rt,MSTSoundLoop.thisRepN,MSTSoundLoop.thisTrialN,MSTSoundLoop.thisN,MSTSoundLoop.thisIndex,MSTSoundLoop.ran,SoundTask.thisRepN,SoundTask.thisTrialN,SoundTask.thisN,SoundTask.thisIndex,SoundTask.ran,SimContKey.keys,SimContKey.rt,SimilarityRatingKey.keys,SimilarityRatingKey.rt,SimilarityRating.thisRepN,SimilarityRating.thisTrialN,SimilarityRating.thisN,SimilarityRating.thisIndex,SimilarityRating.ran,Sound1,Sound2,PairType,Welcome4End.keys,Welcome4End.rt,LabelingKey.keys,LabelingKey.rt,SoundLabelLoop.thisRepN,SoundLabelLoop.thisTrialN,SoundLabelLoop.thisN,SoundLabelLoop.thisIndex,SoundLabelLoop.ran
space,68.235,space,5.175,space,9.408,space,2.803,0,0,0,0,1,Training/FO_YI_LAY.wav,NEW,2,11,2022-02-07_11h09.34.050,Session1,2020.2.10,Win32,60,,,,,,,,,,,,,,,,,,,,,,,,,,,,,,,,,,,,,,,,,,,,,,,,,,,,,,,,,,,,,,,,,,,,,,,,,,
,,,,space,26.115,space,2.888,0,1,1,1,1,Training/FO_YI_LAY.wav,OLD,1,11,2022-02-07_11h09.34.050,Session1,2020.2.10,Win32,60,,,,,,,,,,,,,,,,,,,,,,,,,,,,,,,,,,,,,,,,,,,,,,,,,,,,,,,,,,,,,,,,,,,,,,,,,,
,,,,space,10.238,space,1.725,0,2,2,2,1,Training/YO_BU_JAY.wav,NEW,2,11,2022-02-07_11h09.34.050,Session1,2020.2.10,Win32,60,,,,,,,,,,,,,,,,,,,,,,,,,,,,,,,,,,,,,,,,,,,,,,,,,,,,,,,,,,,,,,,,,,,,,,,,,,
,,,,space,12.889,space,1.217,0,3,3,3,1,Training/JAY_YO_BU.wav,SIMILAR,2,11,2022-02-07_11h09.34.050,Session1,2020.2.10,Win32,60,,,,,,,,,,,,,,,,,,,,,,,,,,,,,,,,,,,,,,,,,,,,,,,,,,,,,,,,,,,,,,,,,,,,,,,,,,
,,,,space,11.238,space,33.793,0,4,4,4,1,Training/FO_YI_LAY.wav,OLD,1,11,2022-02-07_11h09.34.050,Session1,2020.2.10,Win32,60,,,,,,,,,,,,,,,,,,,,,,,,,,,,,,,,,,,,,,,,,,,,,,,,,,,,,,,,,,,,,,,,,,,,,,,,,,
,,,,,,,,,,,,,,,,11,2022-02-07_11h09.34.050,Session1,2020.2.10,Win32,60,space,27.614,2,1,12.615,0,0,0,0,1,TestWords/HA_SI_JAI.wav,2,NEW,NEW,A,,,,,,,,,,,,,,,,,,,,,,,,,,,,,,,,,,,,,,,,,,,,,,,,,,,,,,,,,,,
,,,,,,,,,,,,,,,,11,2022-02-07_11h09.34.050,Session1,2020.2.10,Win32,60,,,2,1,2.067,0,1,1,1,1,TestWords/KO_SU_FAI.wav,2,NEW,NEW,A,,,,,,,,,,,,,,,,,,,,,,,,,,,,,,,,,,,,,,,,,,,,,,,,,,,,,,,,,,,
,,,,,,,,,,,,,,,,11,2022-02-07_11h09.34.050,Session1,2020.2.10,Win32,60,,,2,1,1.602,0,2,2,2,1,TestWords/TAI_GI_SA.wav,2,NEW,NEW,A,,,,,,,,,,,,,,,,,,,,,,,,,,,,,,,,,,,,,,,,,,,,,,,,,,,,,,,,,,,
,,,,,,,,,,,,,,,,11,2022-02-07_11h09.34.050,Session1,2020.2.10,Win32,60,,,2,1,1.822,0,3,3,3,1,TestWords/KAI_LAY_TA.wav,2,NEW,NEW,A,,,,,,,,,,,,,,,,,,,,,,,,,,,,,,,,,,,,,,,,,,,,,,,,,,,,,,,,,,,
,,,,,,,,,,,,,,,,11,2022-02-07_11h09.34.050,Session1,2020.2.10,Win32,60,,,2,1,2.274,0,4,4,4,1,TestWords/RAY_PA_TI.wav,2,NEW,NEW,A,,,,,,,,,,,,,,,,,,,,,,,,,,,,,,,,,,,,,,,,,,,,,,,,,,,,,,,,,,,
,,,,,,,,,,,,,,,,11,2022-02-07_11h09.34.050,Session1,2020.2.10,Win32,60,,,2,0,2.852,0,5,5,5,1,TestWords/KO_SU_FAI.wav,1,OLD,OLD,A,,,,,,,,,,,,,,,,,,,,,,,,,,,,,,,,,,,,,,,,,,,,,,,,,,,,,,,,,,,
,,,,,,,,,,,,,,,,11,2022-02-07_11h09.34.050,Session1,2020.2.10,Win32,60,,,2,1,6.617,0,6,6,6,1,TestWords/TAI_SA_GI.wav,2,NEW,SIMILAR,A,,,,,,,,,,,,,,,,,,,,,,,,,,,,,,,,,,,,,,,,,,,,,,,,,,,,,,,,,,,
,,,,,,,,,,,,,,,,11,2022-02-07_11h09.34.050,Session1,2020.2.10,Win32,60,,,1,1,7.27,0,7,7,7,1,TestWords/KAI_LAY_TA.wav,1,OLD,OLD,A,,,,,,,,,,,,,,,,,,,,,,,,,,,,,,,,,,,,,,,,,,,,,,,,,,,,,,,,,,,
,,,,,,,,,,,,,,,,11,2022-02-07_11h09.34.050,Session1,2020.2.10,Win32,60,,,2,1,1.452,0,8,8,8,1,TestWords/NA_WAI_VU.wav,2,NEW,NEW,A,,,,,,,,,,,,,,,,,,,,,,,,,,,,,,,,,,,,,,,,,,,,,,,,,,,,,,,,,,,
,,,,,,,,,,,,,,,,11,2022-02-07_11h09.34.050,Session1,2020.2.10,Win32,60,,,1,1,4.033,0,9,9,9,1,TestWords/KO_SU_FAI.wav,1,OLD,OLD,A,,,,,,,,,,,,,,,,,,,,,,,,,,,,,,,,,,,,,,,,,,,,,,,,,,,,,,,,,,,
,,,,,,,,,,,,,,,,11,2022-02-07_11h09.34.050,Session1,2020.2.10,Win32,60,,,1,1,2.492,0,10,10,10,1,TestWords/RAY_PA_TI.wav,1,OLD,OLD,A,,,,,,,,,,,,,,,,,,,,,,,,,,,,,,,,,,,,,,,,,,,,,,,,,,,,,,,,,,,
,,,,,,,,,,,,,,,,11,2022-02-07_11h09.34.050,Session1,2020.2.10,Win32,60,,,2,1,2.853,0,11,11,11,1,TestWords/GI_SA_TAI.wav,2,NEW,SIMILAR,A,,,,,,,,,,,,,,,,,,,,,,,,,,,,,,,,,,,,,,,,,,,,,,,,,,,,,,,,,,,
,,,,,,,,,,,,,,,,11,2022-02-07_11h09.34.050,Session1,2020.2.10,Win32,60,,,2,1,1.552,0,12,12,12,1,TestWords/WAI_VU_NA.wav,2,NEW,SIMILAR,A,,,,,,,,,,,,,,,,,,,,,,,,,,,,,,,,,,,,,,,,,,,,,,,,,,,,,,,,,,,
,,,,,,,,,,,,,,,,11,2022-02-07_11h09.34.050,Session1,2020.2.10,Win32,60,,,1,1,5.888,0,13,13,13,1,TestWords/KAI_LAY_TA.wav,1,OLD,OLD,A,,,,,,,,,,,,,,,,,,,,,,,,,,,,,,,,,,,,,,,,,,,,,,,,,,,,,,,,,,,
,,,,,,,,,,,,,,,,11,2022-02-07_11h09.34.050,Session1,2020.2.10,Win32,60,,,2,1,2.092,0,14,14,14,1,TestWords/SI_VAI_CHU.wav,2,NEW,NEW,A,,,,,,,,,,,,,,,,,,,,,,,,,,,,,,,,,,,,,,,,,,,,,,,,,,,,,,,,,,,
,,,,,,,,,,,,,,,,11,2022-02-07_11h09.34.050,Session1,2020.2.10,Win32,60,,,2,1,3.142,0,15,15,15,1,TestWords/GI_TAI_SA.wav,2,NEW,SIMILAR,A,,,,,,,,,,,,,,,,,,,,,,,,,,,,,,,,,,,,,,,,,,,,,,,,,,,,,,,,,,,
,,,,,,,,,,,,,,,,11,2022-02-07_11h09.34.050,Session1,2020.2.10,Win32,60,,,1,1,4.734,0,16,16,16,1,TestWords/KO_SU_FAI.wav,1,OLD,OLD,A,,,,,,,,,,,,,,,,,,,,,,,,,,,,,,,,,,,,,,,,,,,,,,,,,,,,,,,,,,,
,,,,,,,,,,,,,,,,11,2022-02-07_11h09.34.050,Session1,2020.2.10,Win32,60,,,2,1,2.176,0,17,17,17,1,TestWords/DA_CHU_VAI.wav,2,NEW,NEW,A,,,,,,,,,,,,,,,,,,,,,,,,,,,,,,,,,,,,,,,,,,,,,,,,,,,,,,,,,,,
,,,,,,,,,,,,,,,,11,2022-02-07_11h09.34.050,Session1,2020.2.10,Win32,60,,,1,1,2.373,0,18,18,18,1,TestWords/RAY_PA_TI.wav,1,OLD,OLD,A,,,,,,,,,,,,,,,,,,,,,,,,,,,,,,,,,,,,,,,,,,,,,,,,,,,,,,,,,,,
,,,,,,,,,,,,,,,,11,2022-02-07_11h09.34.050,Session1,2020.2.10,Win32,60,,,1,1,6.6,0,19,19,19,1,TestWords/KAI_LAY_TA.wav,1,OLD,OLD,A,,,,,,,,,,,,,,,,,,,,,,,,,,,,,,,,,,,,,,,,,,,,,,,,,,,,,,,,,,,
,,,,,,,,,,,,,,,,11,2022-02-07_11h09.34.050,Session1,2020.2.10,Win32,60,,,2,1,4.758,0,20,20,20,1,TestWords/WAI_NA_VU.wav,2,NEW,SIMILAR,A,,,,,,,,,,,,,,,,,,,,,,,,,,,,,,,,,,,,,,,,,,,,,,,,,,,,,,,,,,,
,,,,,,,,,,,,,,,,11,2022-02-07_11h09.34.050,Session1,2020.2.10,Win32,60,,,1,1,4.558,0,21,21,21,1,TestWords/KO_SU_FAI.wav,1,OLD,OLD,A,,,,,,,,,,,,,,,,,,,,,,,,,,,,,,,,,,,,,,,,,,,,,,,,,,,,,,,,,,,
,,,,,,,,,,,,,,,,11,2022-02-07_11h09.34.050,Session1,2020.2.10,Win32,60,,,2,1,8.049,0,22,22,22,1,TestWords/SA_TAI_GI.wav,2,NEW,SIMILAR,A,,,,,,,,,,,,,,,,,,,,,,,,,,,,,,,,,,,,,,,,,,,,,,,,,,,,,,,,,,,
,,,,,,,,,,,,,,,,11,2022-02-07_11h09.34.050,Session1,2020.2.10,Win32,60,,,1,1,2.753,0,23,23,23,1,TestWords/RAY_PA_TI.wav,1,OLD,OLD,A,,,,,,,,,,,,,,,,,,,,,,,,,,,,,,,,,,,,,,,,,,,,,,,,,,,,,,,,,,,
,,,,,,,,,,,,,,,,11,2022-02-07_11h09.34.050,Session1,2020.2.10,Win32,60,,,1,0,7.298,0,24,24,24,1,TestWords/VU_NA_WAI.wav,2,NEW,SIMILAR,A,,,,,,,,,,,,,,,,,,,,,,,,,,,,,,,,,,,,,,,,,,,,,,,,,,,,,,,,,,,
,,,,,,,,,,,,,,,,11,2022-02-07_11h09.34.050,Session1,2020.2.10,Win32,60,,,1,1,3.669,0,25,25,25,1,TestWords/KAI_LAY_TA.wav,1,OLD,OLD,A,,,,,,,,,,,,,,,,,,,,,,,,,,,,,,,,,,,,,,,,,,,,,,,,,,,,,,,,,,,
,,,,,,,,,,,,,,,,11,2022-02-07_11h09.34.050,Session1,2020.2.10,Win32,60,,,2,1,2.304,0,26,26,26,1,TestWords/WAI_RO_JU.wav,2,NEW,NEW,A,,,,,,,,,,,,,,,,,,,,,,,,,,,,,,,,,,,,,,,,,,,,,,,,,,,,,,,,,,,
,,,,,,,,,,,,,,,,11,2022-02-07_11h09.34.050,Session1,2020.2.10,Win32,60,,,1,1,2.517,0,27,27,27,1,TestWords/KO_SU_FAI.wav,1,OLD,OLD,A,,,,,,,,,,,,,,,,,,,,,,,,,,,,,,,,,,,,,,,,,,,,,,,,,,,,,,,,,,,
,,,,,,,,,,,,,,,,11,2022-02-07_11h09.34.050,Session1,2020.2.10,Win32,60,,,1,0,5.688,0,28,28,28,1,TestWords/SA_GI_TAI.wav,2,NEW,SIMILAR,A,,,,,,,,,,,,,,,,,,,,,,,,,,,,,,,,,,,,,,,,,,,,,,,,,,,,,,,,,,,
,,,,,,,,,,,,,,,,11,2022-02-07_11h09.34.050,Session1,2020.2.10,Win32,60,,,1,1,2.589,0,29,29,29,1,TestWords/RAY_PA_TI.wav,1,OLD,OLD,A,,,,,,,,,,,,,,,,,,,,,,,,,,,,,,,,,,,,,,,,,,,,,,,,,,,,,,,,,,,
,,,,,,,,,,,,,,,,11,2022-02-07_11h09.34.050,Session1,2020.2.10,Win32,60,,,2,1,2.204,0,30,30,30,1,TestWords/GA_MU_ZI.wav,2,NEW,NEW,A,,,,,,,,,,,,,,,,,,,,,,,,,,,,,,,,,,,,,,,,,,,,,,,,,,,,,,,,,,,
,,,,,,,,,,,,,,,,11,2022-02-07_11h09.34.050,Session1,2020.2.10,Win32,60,,,1,1,3.201,0,31,31,31,1,TestWords/KAI_LAY_TA.wav,1,OLD,OLD,A,,,,,,,,,,,,,,,,,,,,,,,,,,,,,,,,,,,,,,,,,,,,,,,,,,,,,,,,,,,
,,,,,,,,,,,,,,,,11,2022-02-07_11h09.34.050,Session1,2020.2.10,Win32,60,,,2,1,3.642,0,32,32,32,1,TestWords/VU_WAI_NA.wav,2,NEW,SIMILAR,A,,,,,,,,,,,,,,,,,,,,,,,,,,,,,,,,,,,,,,,,,,,,,,,,,,,,,,,,,,,
,,,,,,,,,,,,,,,,11,2022-02-07_11h09.34.050,Session1,2020.2.10,Win32,60,,,1,1,1.939,0,33,33,33,1,TestWords/RAY_PA_TI.wav,1,OLD,OLD,A,,,,,,,,,,,,,,,,,,,,,,,,,,,,,,,,,,,,,,,,,,,,,,,,,,,,,,,,,,,
,,,,,,,,,,,,,,,,11,2022-02-07_11h09.34.050,Session1,2020.2.10,Win32,60,,,2,1,3.402,0,34,34,34,1,TestWords/LI_KAY_BA.wav,2,NEW,NEW,A,,,,,,,,,,,,,,,,,,,,,,,,,,,,,,,,,,,,,,,,,,,,,,,,,,,,,,,,,,,
,,,,,,,,,,,,,,,,11,2022-02-07_11h09.34.050,Session1,2020.2.10,Win32,60,,,2,1,1.704,0,35,35,35,1,TestWords/HI_NAY_VA.wav,2,NEW,NEW,A,,,,,,,,,,,,,,,,,,,,,,,,,,,,,,,,,,,,,,,,,,,,,,,,,,,,,,,,,,,
,,,,,,,,,,,,,,,,11,2022-02-07_11h09.34.050,Session1,2020.2.10,Win32,60,,,1,1,1.918,0,36,36,36,1,TestWords/KO_SU_FAI.wav,1,OLD,OLD,A,,,,,,,,,,,,,,,,,,,,,,,,,,,,,,,,,,,,,,,,,,,,,,,,,,,,,,,,,,,
,,,,,,,,,,,,,,,,11,2022-02-07_11h09.34.050,Session1,2020.2.10,Win32,60,,,1,0,2.018,0,37,37,37,1,TestWords/NA_VU_WAI.wav,2,NEW,SIMILAR,A,,,,,,,,,,,,,,,,,,,,,,,,,,,,,,,,,,,,,,,,,,,,,,,,,,,,,,,,,,,
,,,,,,,,,,,,,,,,11,2022-02-07_11h09.34.050,Session1,2020.2.10,Win32,60,,,1,1,2.167,0,38,38,38,1,TestWords/GA_MU_ZI.wav,1,OLD,OLD,A,,,,,,,,,,,,,,,,,,,,,,,,,,,,,,,,,,,,,,,,,,,,,,,,,,,,,,,,,,,
,,,,,,,,,,,,,,,,11,2022-02-07_11h09.34.050,Session1,2020.2.10,Win32,60,,,1,1,1.871,0,39,39,39,1,TestWords/KAI_LAY_TA.wav,1,OLD,OLD,A,,,,,,,,,,,,,,,,,,,,,,,,,,,,,,,,,,,,,,,,,,,,,,,,,,,,,,,,,,,
,,,,,,,,,,,,,,,,11,2022-02-07_11h09.34.050,Session1,2020.2.10,Win32,60,,,1,0,6.733,0,40,40,40,1,TestWords/DAI_RU_CHI.wav,2,NEW,NEW,A,,,,,,,,,,,,,,,,,,,,,,,,,,,,,,,,,,,,,,,,,,,,,,,,,,,,,,,,,,,
,,,,,,,,,,,,,,,,11,2022-02-07_11h09.34.050,Session1,2020.2.10,Win32,60,,,2,1,3.192,0,41,41,41,1,TestWords/NU_CHAY_SO.wav,2,NEW,NEW,A,,,,,,,,,,,,,,,,,,,,,,,,,,,,,,,,,,,,,,,,,,,,,,,,,,,,,,,,,,,
,,,,,,,,,,,,,,,,11,2022-02-07_11h09.34.050,Session1,2020.2.10,Win32,60,,,1,1,1.819,0,42,42,42,1,TestWords/RAY_PA_TI.wav,1,OLD,OLD,A,,,,,,,,,,,,,,,,,,,,,,,,,,,,,,,,,,,,,,,,,,,,,,,,,,,,,,,,,,,
,,,,,,,,,,,,,,,,11,2022-02-07_11h09.34.050,Session1,2020.2.10,Win32,60,,,1,0,6.751,0,43,43,43,1,TestWords/BA_KAY_LI.wav,2,NEW,SIMILAR,A,,,,,,,,,,,,,,,,,,,,,,,,,,,,,,,,,,,,,,,,,,,,,,,,,,,,,,,,,,,
,,,,,,,,,,,,,,,,11,2022-02-07_11h09.34.050,Session1,2020.2.10,Win32,60,,,1,1,2.37,0,44,44,44,1,TestWords/KO_SU_FAI.wav,1,OLD,OLD,A,,,,,,,,,,,,,,,,,,,,,,,,,,,,,,,,,,,,,,,,,,,,,,,,,,,,,,,,,,,
,,,,,,,,,,,,,,,,11,2022-02-07_11h09.34.050,Session1,2020.2.10,Win32,60,,,1,1,4.787,0,45,45,45,1,TestWords/GA_MU_ZI.wav,1,OLD,OLD,A,,,,,,,,,,,,,,,,,,,,,,,,,,,,,,,,,,,,,,,,,,,,,,,,,,,,,,,,,,,
,,,,,,,,,,,,,,,,11,2022-02-07_11h09.34.050,Session1,2020.2.10,Win32,60,,,2,1,5.12,0,46,46,46,1,TestWords/CHU_LA_PAY.wav,2,NEW,NEW,A,,,,,,,,,,,,,,,,,,,,,,,,,,,,,,,,,,,,,,,,,,,,,,,,,,,,,,,,,,,
,,,,,,,,,,,,,,,,11,2022-02-07_11h09.34.050,Session1,2020.2.10,Win32,60,,,1,1,1.79,0,47,47,47,1,TestWords/KAI_LAY_TA.wav,1,OLD,OLD,A,,,,,,,,,,,,,,,,,,,,,,,,,,,,,,,,,,,,,,,,,,,,,,,,,,,,,,,,,,,
,,,,,,,,,,,,,,,,11,2022-02-07_11h09.34.050,Session1,2020.2.10,Win32,60,,,1,1,6.537,0,48,48,48,1,TestWords/DAI_RU_CHI.wav,1,OLD,OLD,A,,,,,,,,,,,,,,,,,,,,,,,,,,,,,,,,,,,,,,,,,,,,,,,,,,,,,,,,,,,
,,,,,,,,,,,,,,,,11,2022-02-07_11h09.34.050,Session1,2020.2.10,Win32,60,,,1,1,2.651,0,49,49,49,1,TestWords/KO_SU_FAI.wav,1,OLD,OLD,A,,,,,,,,,,,,,,,,,,,,,,,,,,,,,,,,,,,,,,,,,,,,,,,,,,,,,,,,,,,
,,,,,,,,,,,,,,,,11,2022-02-07_11h09.34.050,Session1,2020.2.10,Win32,60,,,1,0,6.772,0,50,50,50,1,TestWords/KAY_LI_BA.wav,2,NEW,SIMILAR,A,,,,,,,,,,,,,,,,,,,,,,,,,,,,,,,,,,,,,,,,,,,,,,,,,,,,,,,,,,,
,,,,,,,,,,,,,,,,11,2022-02-07_11h09.34.050,Session1,2020.2.10,Win32,60,,,1,1,1.587,0,51,51,51,1,TestWords/RAY_PA_TI.wav,1,OLD,OLD,A,,,,,,,,,,,,,,,,,,,,,,,,,,,,,,,,,,,,,,,,,,,,,,,,,,,,,,,,,,,
,,,,,,,,,,,,,,,,11,2022-02-07_11h09.34.050,Session1,2020.2.10,Win32,60,,,1,1,1.955,0,52,52,52,1,TestWords/KAI_LAY_TA.wav,1,OLD,OLD,A,,,,,,,,,,,,,,,,,,,,,,,,,,,,,,,,,,,,,,,,,,,,,,,,,,,,,,,,,,,
,,,,,,,,,,,,,,,,11,2022-02-07_11h09.34.050,Session1,2020.2.10,Win32,60,,,1,0,7.649,0,53,53,53,1,TestWords/HO_NAY_VA.wav,2,NEW,NEW,A,,,,,,,,,,,,,,,,,,,,,,,,,,,,,,,,,,,,,,,,,,,,,,,,,,,,,,,,,,,
,,,,,,,,,,,,,,,,11,2022-02-07_11h09.34.050,Session1,2020.2.10,Win32,60,,,1,1,3.406,0,54,54,54,1,TestWords/GA_MU_ZI.wav,1,OLD,OLD,A,,,,,,,,,,,,,,,,,,,,,,,,,,,,,,,,,,,,,,,,,,,,,,,,,,,,,,,,,,,
,,,,,,,,,,,,,,,,11,2022-02-07_11h09.34.050,Session1,2020.2.10,Win32,60,,,1,1,2.402,0,55,55,55,1,TestWords/DAI_RU_CHI.wav,1,OLD,OLD,A,,,,,,,,,,,,,,,,,,,,,,,,,,,,,,,,,,,,,,,,,,,,,,,,,,,,,,,,,,,
,,,,,,,,,,,,,,,,11,2022-02-07_11h09.34.050,Session1,2020.2.10,Win32,60,,,2,1,1.735,0,56,56,56,1,TestWords/MO_PU_DAY.wav,2,NEW,NEW,A,,,,,,,,,,,,,,,,,,,,,,,,,,,,,,,,,,,,,,,,,,,,,,,,,,,,,,,,,,,
,,,,,,,,,,,,,,,,11,2022-02-07_11h09.34.050,Session1,2020.2.10,Win32,60,,,1,1,1.703,0,57,57,57,1,TestWords/KO_SU_FAI.wav,1,OLD,OLD,A,,,,,,,,,,,,,,,,,,,,,,,,,,,,,,,,,,,,,,,,,,,,,,,,,,,,,,,,,,,
,,,,,,,,,,,,,,,,11,2022-02-07_11h09.34.050,Session1,2020.2.10,Win32,60,,,1,0,4.135,0,58,58,58,1,TestWords/KAY_BA_LI.wav,2,NEW,SIMILAR,A,,,,,,,,,,,,,,,,,,,,,,,,,,,,,,,,,,,,,,,,,,,,,,,,,,,,,,,,,,,
,,,,,,,,,,,,,,,,11,2022-02-07_11h09.34.050,Session1,2020.2.10,Win32,60,,,1,1,1.335,0,59,59,59,1,TestWords/RAY_PA_TI.wav,1,OLD,OLD,A,,,,,,,,,,,,,,,,,,,,,,,,,,,,,,,,,,,,,,,,,,,,,,,,,,,,,,,,,,,
,,,,,,,,,,,,,,,,11,2022-02-07_11h09.34.050,Session1,2020.2.10,Win32,60,,,1,1,6.412,0,60,60,60,1,TestWords/KAI_LAY_TA.wav,1,OLD,OLD,A,,,,,,,,,,,,,,,,,,,,,,,,,,,,,,,,,,,,,,,,,,,,,,,,,,,,,,,,,,,
,,,,,,,,,,,,,,,,11,2022-02-07_11h09.34.050,Session1,2020.2.10,Win32,60,,,1,1,5.234,0,61,61,61,1,TestWords/GA_MU_ZI.wav,1,OLD,OLD,A,,,,,,,,,,,,,,,,,,,,,,,,,,,,,,,,,,,,,,,,,,,,,,,,,,,,,,,,,,,
,,,,,,,,,,,,,,,,11,2022-02-07_11h09.34.050,Session1,2020.2.10,Win32,60,,,2,1,3.001,0,62,62,62,1,TestWords/DAY_PU_MO.wav,2,NEW,SIMILAR,A,,,,,,,,,,,,,,,,,,,,,,,,,,,,,,,,,,,,,,,,,,,,,,,,,,,,,,,,,,,
,,,,,,,,,,,,,,,,11,2022-02-07_11h09.34.050,Session1,2020.2.10,Win32,60,,,1,1,2.405,0,63,63,63,1,TestWords/DAI_RU_CHI.wav,1,OLD,OLD,A,,,,,,,,,,,,,,,,,,,,,,,,,,,,,,,,,,,,,,,,,,,,,,,,,,,,,,,,,,,
,,,,,,,,,,,,,,,,11,2022-02-07_11h09.34.050,Session1,2020.2.10,Win32,60,,,1,0,3.735,0,64,64,64,1,TestWords/LI_BA_KAY.wav,2,NEW,SIMILAR,A,,,,,,,,,,,,,,,,,,,,,,,,,,,,,,,,,,,,,,,,,,,,,,,,,,,,,,,,,,,
,,,,,,,,,,,,,,,,11,2022-02-07_11h09.34.050,Session1,2020.2.10,Win32,60,,,1,1,2.336,0,65,65,65,1,TestWords/KAI_LAY_TA.wav,1,OLD,OLD,A,,,,,,,,,,,,,,,,,,,,,,,,,,,,,,,,,,,,,,,,,,,,,,,,,,,,,,,,,,,
,,,,,,,,,,,,,,,,11,2022-02-07_11h09.34.050,Session1,2020.2.10,Win32,60,,,1,1,2.202,0,66,66,66,1,TestWords/KO_SU_FAI.wav,1,OLD,OLD,A,,,,,,,,,,,,,,,,,,,,,,,,,,,,,,,,,,,,,,,,,,,,,,,,,,,,,,,,,,,
,,,,,,,,,,,,,,,,11,2022-02-07_11h09.34.050,Session1,2020.2.10,Win32,60,,,2,1,6.383,0,67,67,67,1,TestWords/DAY_MO_PU.wav,2,NEW,SIMILAR,A,,,,,,,,,,,,,,,,,,,,,,,,,,,,,,,,,,,,,,,,,,,,,,,,,,,,,,,,,,,
,,,,,,,,,,,,,,,,11,2022-02-07_11h09.34.050,Session1,2020.2.10,Win32,60,,,1,1,1.606,0,68,68,68,1,TestWords/RAY_PA_TI.wav,1,OLD,OLD,A,,,,,,,,,,,,,,,,,,,,,,,,,,,,,,,,,,,,,,,,,,,,,,,,,,,,,,,,,,,
,,,,,,,,,,,,,,,,11,2022-02-07_11h09.34.050,Session1,2020.2.10,Win32,60,,,1,1,2.087,0,69,69,69,1,TestWords/GA_MU_ZI.wav,1,OLD,OLD,A,,,,,,,,,,,,,,,,,,,,,,,,,,,,,,,,,,,,,,,,,,,,,,,,,,,,,,,,,,,
,,,,,,,,,,,,,,,,11,2022-02-07_11h09.34.050,Session1,2020.2.10,Win32,60,,,1,0,5.8,0,70,70,70,1,TestWords/BA_LI_KAY.wav,2,NEW,SIMILAR,A,,,,,,,,,,,,,,,,,,,,,,,,,,,,,,,,,,,,,,,,,,,,,,,,,,,,,,,,,,,
,,,,,,,,,,,,,,,,11,2022-02-07_11h09.34.050,Session1,2020.2.10,Win32,60,,,1,1,1.674,0,71,71,71,1,TestWords/DAI_RU_CHI.wav,1,OLD,OLD,A,,,,,,,,,,,,,,,,,,,,,,,,,,,,,,,,,,,,,,,,,,,,,,,,,,,,,,,,,,,
,,,,,,,,,,,,,,,,11,2022-02-07_11h09.34.050,Session1,2020.2.10,Win32,60,,,2,1,3.14,0,72,72,72,1,TestWords/LU_HAI_BO.wav,2,NEW,NEW,A,,,,,,,,,,,,,,,,,,,,,,,,,,,,,,,,,,,,,,,,,,,,,,,,,,,,,,,,,,,
,,,,,,,,,,,,,,,,11,2022-02-07_11h09.34.050,Session1,2020.2.10,Win32,60,,,1,1,1.236,0,73,73,73,1,TestWords/RAY_PA_TI.wav,1,OLD,OLD,A,,,,,,,,,,,,,,,,,,,,,,,,,,,,,,,,,,,,,,,,,,,,,,,,,,,,,,,,,,,
,,,,,,,,,,,,,,,,11,2022-02-07_11h09.34.050,Session1,2020.2.10,Win32,60,,,1,1,1.76,0,74,74,74,1,TestWords/GA_MU_ZI.wav,1,OLD,OLD,A,,,,,,,,,,,,,,,,,,,,,,,,,,,,,,,,,,,,,,,,,,,,,,,,,,,,,,,,,,,
,,,,,,,,,,,,,,,,11,2022-02-07_11h09.34.050,Session1,2020.2.10,Win32,60,,,1,0,5.423,0,75,75,75,1,TestWords/MO_DAY_PU.wav,2,NEW,SIMILAR,A,,,,,,,,,,,,,,,,,,,,,,,,,,,,,,,,,,,,,,,,,,,,,,,,,,,,,,,,,,,
,,,,,,,,,,,,,,,,11,2022-02-07_11h09.34.050,Session1,2020.2.10,Win32,60,,,1,1,1.688,0,76,76,76,1,TestWords/DAI_RU_CHI.wav,1,OLD,OLD,A,,,,,,,,,,,,,,,,,,,,,,,,,,,,,,,,,,,,,,,,,,,,,,,,,,,,,,,,,,,
,,,,,,,,,,,,,,,,11,2022-02-07_11h09.34.050,Session1,2020.2.10,Win32,60,,,2,1,1.669,0,77,77,77,1,TestWords/ZO_FU_RAI.wav,2,NEW,NEW,A,,,,,,,,,,,,,,,,,,,,,,,,,,,,,,,,,,,,,,,,,,,,,,,,,,,,,,,,,,,
,,,,,,,,,,,,,,,,11,2022-02-07_11h09.34.050,Session1,2020.2.10,Win32,60,,,2,1,5.251,0,78,78,78,1,TestWords/NO_WA_BAY.wav,2,NEW,NEW,A,,,,,,,,,,,,,,,,,,,,,,,,,,,,,,,,,,,,,,,,,,,,,,,,,,,,,,,,,,,
,,,,,,,,,,,,,,,,11,2022-02-07_11h09.34.050,Session1,2020.2.10,Win32,60,,,1,1,1.621,0,79,79,79,1,TestWords/GA_MU_ZI.wav,1,OLD,OLD,A,,,,,,,,,,,,,,,,,,,,,,,,,,,,,,,,,,,,,,,,,,,,,,,,,,,,,,,,,,,
,,,,,,,,,,,,,,,,11,2022-02-07_11h09.34.050,Session1,2020.2.10,Win32,60,,,1,1,1.834,0,80,80,80,1,TestWords/DAI_RU_CHI.wav,1,OLD,OLD,A,,,,,,,,,,,,,,,,,,,,,,,,,,,,,,,,,,,,,,,,,,,,,,,,,,,,,,,,,,,
,,,,,,,,,,,,,,,,11,2022-02-07_11h09.34.050,Session1,2020.2.10,Win32,60,,,1,0,5.667,0,81,81,81,1,TestWords/PU_DAY_MO.wav,2,NEW,SIMILAR,A,,,,,,,,,,,,,,,,,,,,,,,,,,,,,,,,,,,,,,,,,,,,,,,,,,,,,,,,,,,
,,,,,,,,,,,,,,,,11,2022-02-07_11h09.34.050,Session1,2020.2.10,Win32,60,,,2,1,4.619,0,82,82,82,1,TestWords/RAI_ZO_FU.wav,2,NEW,SIMILAR,A,,,,,,,,,,,,,,,,,,,,,,,,,,,,,,,,,,,,,,,,,,,,,,,,,,,,,,,,,,,
,,,,,,,,,,,,,,,,11,2022-02-07_11h09.34.050,Session1,2020.2.10,Win32,60,,,1,1,1.285,0,83,83,83,1,TestWords/GA_MU_ZI.wav,1,OLD,OLD,A,,,,,,,,,,,,,,,,,,,,,,,,,,,,,,,,,,,,,,,,,,,,,,,,,,,,,,,,,,,
,,,,,,,,,,,,,,,,11,2022-02-07_11h09.34.050,Session1,2020.2.10,Win32,60,,,2,1,2.103,0,84,84,84,1,TestWords/PAI_LU_WA.wav,2,NEW,NEW,A,,,,,,,,,,,,,,,,,,,,,,,,,,,,,,,,,,,,,,,,,,,,,,,,,,,,,,,,,,,
,,,,,,,,,,,,,,,,11,2022-02-07_11h09.34.050,Session1,2020.2.10,Win32,60,,,1,0,7.599,0,85,85,85,1,TestWords/PU_MO_DAY.wav,2,NEW,SIMILAR,A,,,,,,,,,,,,,,,,,,,,,,,,,,,,,,,,,,,,,,,,,,,,,,,,,,,,,,,,,,,
,,,,,,,,,,,,,,,,11,2022-02-07_11h09.34.050,Session1,2020.2.10,Win32,60,,,1,1,1.686,0,86,86,86,1,TestWords/DAI_RU_CHI.wav,1,OLD,OLD,A,,,,,,,,,,,,,,,,,,,,,,,,,,,,,,,,,,,,,,,,,,,,,,,,,,,,,,,,,,,
,,,,,,,,,,,,,,,,11,2022-02-07_11h09.34.050,Session1,2020.2.10,Win32,60,,,1,0,2.486,0,87,87,87,1,TestWords/ZO_RAI_FU.wav,2,NEW,SIMILAR,A,,,,,,,,,,,,,,,,,,,,,,,,,,,,,,,,,,,,,,,,,,,,,,,,,,,,,,,,,,,
,,,,,,,,,,,,,,,,11,2022-02-07_11h09.34.050,Session1,2020.2.10,Win32,60,,,2,1,1.537,0,88,88,88,1,TestWords/FI_GU_CHA.wav,2,NEW,NEW,A,,,,,,,,,,,,,,,,,,,,,,,,,,,,,,,,,,,,,,,,,,,,,,,,,,,,,,,,,,,
,,,,,,,,,,,,,,,,11,2022-02-07_11h09.34.050,Session1,2020.2.10,Win32,60,,,1,1,1.508,0,89,89,89,1,TestWords/GA_MU_ZI.wav,1,OLD,OLD,A,,,,,,,,,,,,,,,,,,,,,,,,,,,,,,,,,,,,,,,,,,,,,,,,,,,,,,,,,,,
,,,,,,,,,,,,,,,,11,2022-02-07_11h09.34.050,Session1,2020.2.10,Win32,60,,,1,1,1.626,0,90,90,90,1,TestWords/DAI_RU_CHI.wav,1,OLD,OLD,A,,,,,,,,,,,,,,,,,,,,,,,,,,,,,,,,,,,,,,,,,,,,,,,,,,,,,,,,,,,
,,,,,,,,,,,,,,,,11,2022-02-07_11h09.34.050,Session1,2020.2.10,Win32,60,,,1,0,6.334,0,91,91,91,1,TestWords/FU_RAI_ZO.wav,2,NEW,SIMILAR,A,,,,,,,,,,,,,,,,,,,,,,,,,,,,,,,,,,,,,,,,,,,,,,,,,,,,,,,,,,,
,,,,,,,,,,,,,,,,11,2022-02-07_11h09.34.050,Session1,2020.2.10,Win32,60,,,2,1,6.648,0,92,92,92,1,TestWords/GU_CHAI_PI.wav,2,NEW,NEW,A,,,,,,,,,,,,,,,,,,,,,,,,,,,,,,,,,,,,,,,,,,,,,,,,,,,,,,,,,,,
,,,,,,,,,,,,,,,,11,2022-02-07_11h09.34.050,Session1,2020.2.10,Win32,60,,,1,1,1.519,0,93,93,93,1,TestWords/GA_MU_ZI.wav,1,OLD,OLD,A,,,,,,,,,,,,,,,,,,,,,,,,,,,,,,,,,,,,,,,,,,,,,,,,,,,,,,,,,,,
,,,,,,,,,,,,,,,,11,2022-02-07_11h09.34.050,Session1,2020.2.10,Win32,60,,,1,1,2.005,0,94,94,94,1,TestWords/DAI_RU_CHI.wav,1,OLD,OLD,A,,,,,,,,,,,,,,,,,,,,,,,,,,,,,,,,,,,,,,,,,,,,,,,,,,,,,,,,,,,
,,,,,,,,,,,,,,,,11,2022-02-07_11h09.34.050,Session1,2020.2.10,Win32,60,,,1,0,2.168,0,95,95,95,1,TestWords/FU_ZO_RAI.wav,2,NEW,SIMILAR,A,,,,,,,,,,,,,,,,,,,,,,,,,,,,,,,,,,,,,,,,,,,,,,,,,,,,,,,,,,,
,,,,,,,,,,,,,,,,11,2022-02-07_11h09.34.050,Session1,2020.2.10,Win32,60,,,1,0,7.75,0,96,96,96,1,TestWords/VAI_HO_LA.wav,2,NEW,NEW,A,,,,,,,,,,,,,,,,,,,,,,,,,,,,,,,,,,,,,,,,,,,,,,,,,,,,,,,,,,,
,,,,,,,,,,,,,,,,11,2022-02-07_11h09.34.050,Session1,2020.2.10,Win32,60,,,1,1,1.419,0,97,97,97,1,TestWords/DAI_RU_CHI.wav,1,OLD,OLD,A,,,,,,,,,,,,,,,,,,,,,,,,,,,,,,,,,,,,,,,,,,,,,,,,,,,,,,,,,,,
,,,,,,,,,,,,,,,,11,2022-02-07_11h09.34.050,Session1,2020.2.10,Win32,60,,,2,1,2.217,0,98,98,98,1,TestWords/LA_ZAY_CHAI.wav,2,NEW,NEW,A,,,,,,,,,,,,,,,,,,,,,,,,,,,,,,,,,,,,,,,,,,,,,,,,,,,,,,,,,,,
,,,,,,,,,,,,,,,,11,2022-02-07_11h09.34.050,Session1,2020.2.10,Win32,60,,,1,0,2.5,0,99,99,99,1,TestWords/RAI_FU_ZO.wav,2,NEW,SIMILAR,A,,,,,,,,,,,,,,,,,,,,,,,,,,,,,,,,,,,,,,,,,,,,,,,,,,,,,,,,,,,
,,,,,,,,,,,,,,,,11,2022-02-07_11h09.34.050,Session1,2020.2.10,Win32,60,,,,,,,,,,,,,,,,0,0,0,0,1,,,,,,,,,,,,,,,,,,,,,,,,,,,,,,,,,,,,,,,,,,,,,,,,,,,,,,
,,space,4.231,,,,,,,,,,,,,11,2022-02-07_11h09.34.050,Session1,2020.2.10,Win32,60,,,,,,,,,,,,,,,,,,,,,space,56.79,space,37.483,space,5.765,space,2.153,0,0,0,0,1,Practice/Seagull_A.wav,2,3,NEW,Practice,,,,,,,,,,,,,,,,,,,,,,,,,,,,,,,,,,,,
,,,,,,,,,,,,,,,,11,2022-02-07_11h09.34.050,Session1,2020.2.10,Win32,60,,,,,,,,,,,,,,,,,,,,,,,,,space,9.718,space,1.635,0,1,1,1,1,Practice/Skid_B.wav,2,3,NEW,Practice,,,,,,,,,,,,,,,,,,,,,,,,,,,,,,,,,,,,
,,,,,,,,,,,,,,,,11,2022-02-07_11h09.34.050,Session1,2020.2.10,Win32,60,,,,,,,,,,,,,,,,,,,,,,,,,space,5.625,space,3.16,0,2,2,2,1,Practice/Seagull_A.wav,1,1,OLD,Practice,,,,,,,,,,,,,,,,,,,,,,,,,,,,,,,,,,,,
,,,,,,,,,,,,,,,,11,2022-02-07_11h09.34.050,Session1,2020.2.10,Win32,60,,,,,,,,,,,,,,,,,,,,,,,,,space,3.194,space,1.293,0,3,3,3,1,Practice/Gargle_A.wav,2,3,NEW,Practice,,,,,,,,,,,,,,,,,,,,,,,,,,,,,,,,,,,,
,,,,,,,,,,,,,,,,11,2022-02-07_11h09.34.050,Session1,2020.2.10,Win32,60,,,,,,,,,,,,,,,,,,,,,,,,,space,4.414,space,20.252,0,4,4,4,1,Practice/Gargle_B.wav,2,2,SIMILAR,Practice,,,,,,,,,,,,,,,,,,,,,,,,,,,,,,,,,,,,
,,,,,,,,,,,,,,,,11,2022-02-07_11h09.34.050,Session1,2020.2.10,Win32,60,,,,,,,,,,,,,,,,,,,,,,,,,,,,,,,,,,SoundMST/Buzz.wav,2,3,NEW,A,space,1.433,2,1,1.086,0,0,0,0,1,,,,,,,,,,,,,,,,,,,,,,,,,,
,,,,,,,,,,,,,,,,11,2022-02-07_11h09.34.050,Session1,2020.2.10,Win32,60,,,,,,,,,,,,,,,,,,,,,,,,,,,,,,,,,,SoundMST/Writing_A.wav,2,3,NEW,A,,,2,1,0.404,0,1,1,1,1,,,,,,,,,,,,,,,,,,,,,,,,,,
,,,,,,,,,,,,,,,,11,2022-02-07_11h09.34.050,Session1,2020.2.10,Win32,60,,,,,,,,,,,,,,,,,,,,,,,,,,,,,,,,,,SoundMST/CarStart_E.wav,2,3,NEW,A,,,2,1,0.773,0,2,2,2,1,,,,,,,,,,,,,,,,,,,,,,,,,,
,,,,,,,,,,,,,,,,11,2022-02-07_11h09.34.050,Session1,2020.2.10,Win32,60,,,,,,,,,,,,,,,,,,,,,,,,,,,,,,,,,,SoundMST/Elephant_C.wav,2,3,NEW,A,,,2,1,0.519,0,3,3,3,1,,,,,,,,,,,,,,,,,,,,,,,,,,
,,,,,,,,,,,,,,,,11,2022-02-07_11h09.34.050,Session1,2020.2.10,Win32,60,,,,,,,,,,,,,,,,,,,,,,,,,,,,,,,,,,SoundMST/Puff_A.wav,2,3,NEW,A,,,2,1,0.803,0,4,4,4,1,,,,,,,,,,,,,,,,,,,,,,,,,,
,,,,,,,,,,,,,,,,11,2022-02-07_11h09.34.050,Session1,2020.2.10,Win32,60,,,,,,,,,,,,,,,,,,,,,,,,,,,,,,,,,,SoundMST/Trumpet_B.wav,2,3,NEW,A,,,2,1,1.12,0,5,5,5,1,,,,,,,,,,,,,,,,,,,,,,,,,,
,,,,,,,,,,,,,,,,11,2022-02-07_11h09.34.050,Session1,2020.2.10,Win32,60,,,,,,,,,,,,,,,,,,,,,,,,,,,,,,,,,,SoundMST/Heartbeat.wav,2,3,NEW,A,,,2,1,1.121,0,6,6,6,1,,,,,,,,,,,,,,,,,,,,,,,,,,
,,,,,,,,,,,,,,,,11,2022-02-07_11h09.34.050,Session1,2020.2.10,Win32,60,,,,,,,,,,,,,,,,,,,,,,,,,,,,,,,,,,SoundMST/Piano_D.wav,2,3,NEW,A,,,2,1,0.738,0,7,7,7,1,,,,,,,,,,,,,,,,,,,,,,,,,,
,,,,,,,,,,,,,,,,11,2022-02-07_11h09.34.050,Session1,2020.2.10,Win32,60,,,,,,,,,,,,,,,,,,,,,,,,,,,,,,,,,,SoundMST/Cello.wav,2,3,NEW,A,,,2,1,0.936,0,8,8,8,1,,,,,,,,,,,,,,,,,,,,,,,,,,
,,,,,,,,,,,,,,,,11,2022-02-07_11h09.34.050,Session1,2020.2.10,Win32,60,,,,,,,,,,,,,,,,,,,,,,,,,,,,,,,,,,SoundMST/Writing_C.wav,2,2,SIMILAR,A,,,2,1,0.948,0,9,9,9,1,,,,,,,,,,,,,,,,,,,,,,,,,,
,,,,,,,,,,,,,,,,11,2022-02-07_11h09.34.050,Session1,2020.2.10,Win32,60,,,,,,,,,,,,,,,,,,,,,,,,,,,,,,,,,,SoundMST/Buzz.wav,1,1,OLD,A,,,1,1,1.305,0,10,10,10,1,,,,,,,,,,,,,,,,,,,,,,,,,,
,,,,,,,,,,,,,,,,11,2022-02-07_11h09.34.050,Session1,2020.2.10,Win32,60,,,,,,,,,,,,,,,,,,,,,,,,,,,,,,,,,,SoundMST/Steam.wav,2,3,NEW,A,,,2,1,1.069,0,11,11,11,1,,,,,,,,,,,,,,,,,,,,,,,,,,
,,,,,,,,,,,,,,,,11,2022-02-07_11h09.34.050,Session1,2020.2.10,Win32,60,,,,,,,,,,,,,,,,,,,,,,,,,,,,,,,,,,SoundMST/Cuckoo_A.wav,2,3,NEW,A,,,2,1,1.036,0,12,12,12,1,,,,,,,,,,,,,,,,,,,,,,,,,,
,,,,,,,,,,,,,,,,11,2022-02-07_11h09.34.050,Session1,2020.2.10,Win32,60,,,,,,,,,,,,,,,,,,,,,,,,,,,,,,,,,,SoundMST/Chicken_A.wav,2,3,NEW,A,,,2,1,0.942,0,13,13,13,1,,,,,,,,,,,,,,,,,,,,,,,,,,
,,,,,,,,,,,,,,,,11,2022-02-07_11h09.34.050,Session1,2020.2.10,Win32,60,,,,,,,,,,,,,,,,,,,,,,,,,,,,,,,,,,SoundMST/Goat_C.wav,2,3,NEW,A,,,2,1,1.503,0,14,14,14,1,,,,,,,,,,,,,,,,,,,,,,,,,,
,,,,,,,,,,,,,,,,11,2022-02-07_11h09.34.050,Session1,2020.2.10,Win32,60,,,,,,,,,,,,,,,,,,,,,,,,,,,,,,,,,,SoundMST/CarStart_D.wav,2,2,SIMILAR,A,,,2,1,1.385,0,15,15,15,1,,,,,,,,,,,,,,,,,,,,,,,,,,
,,,,,,,,,,,,,,,,11,2022-02-07_11h09.34.050,Session1,2020.2.10,Win32,60,,,,,,,,,,,,,,,,,,,,,,,,,,,,,,,,,,SoundMST/Duck_B.wav,2,3,NEW,A,,,2,1,1.085,0,16,16,16,1,,,,,,,,,,,,,,,,,,,,,,,,,,
,,,,,,,,,,,,,,,,11,2022-02-07_11h09.34.050,Session1,2020.2.10,Win32,60,,,,,,,,,,,,,,,,,,,,,,,,,,,,,,,,,,SoundMST/Trumpet_C.wav,2,2,SIMILAR,A,,,2,1,1.809,0,17,17,17,1,,,,,,,,,,,,,,,,,,,,,,,,,,
,,,,,,,,,,,,,,,,11,2022-02-07_11h09.34.050,Session1,2020.2.10,Win32,60,,,,,,,,,,,,,,,,,,,,,,,,,,,,,,,,,,SoundMST/Cello.wav,1,1,OLD,A,,,1,1,1.103,0,18,18,18,1,,,,,,,,,,,,,,,,,,,,,,,,,,
,,,,,,,,,,,,,,,,11,2022-02-07_11h09.34.050,Session1,2020.2.10,Win32,60,,,,,,,,,,,,,,,,,,,,,,,,,,,,,,,,,,SoundMST/Camera.wav,2,3,NEW,A,,,2,1,6.317,0,19,19,19,1,,,,,,,,,,,,,,,,,,,,,,,,,,
,,,,,,,,,,,,,,,,11,2022-02-07_11h09.34.050,Session1,2020.2.10,Win32,60,,,,,,,,,,,,,,,,,,,,,,,,,,,,,,,,,,SoundMST/Puff_A.wav,1,1,OLD,A,,,1,1,1.677,0,20,20,20,1,,,,,,,,,,,,,,,,,,,,,,,,,,
,,,,,,,,,,,,,,,,11,2022-02-07_11h09.34.050,Session1,2020.2.10,Win32,60,,,,,,,,,,,,,,,,,,,,,,,,,,,,,,,,,,SoundMST/Heartbeat.wav,1,1,OLD,A,,,1,1,1.105,0,21,21,21,1,,,,,,,,,,,,,,,,,,,,,,,,,,
,,,,,,,,,,,,,,,,11,2022-02-07_11h09.34.050,Session1,2020.2.10,Win32,60,,,,,,,,,,,,,,,,,,,,,,,,,,,,,,,,,,SoundMST/Phone_F.wav,2,3,NEW,A,,,2,1,0.187,0,22,22,22,1,,,,,,,,,,,,,,,,,,,,,,,,,,
,,,,,,,,,,,,,,,,11,2022-02-07_11h09.34.050,Session1,2020.2.10,Win32,60,,,,,,,,,,,,,,,,,,,,,,,,,,,,,,,,,,SoundMST/Piano_C.wav,2,2,SIMILAR,A,,,2,1,1.251,0,23,23,23,1,,,,,,,,,,,,,,,,,,,,,,,,,,
,,,,,,,,,,,,,,,,11,2022-02-07_11h09.34.050,Session1,2020.2.10,Win32,60,,,,,,,,,,,,,,,,,,,,,,,,,,,,,,,,,,SoundMST/Snore_C.wav,2,3,NEW,A,,,2,1,1.059,0,24,24,24,1,,,,,,,,,,,,,,,,,,,,,,,,,,
,,,,,,,,,,,,,,,,11,2022-02-07_11h09.34.050,Session1,2020.2.10,Win32,60,,,,,,,,,,,,,,,,,,,,,,,,,,,,,,,,,,SoundMST/Chicken_A.wav,1,1,OLD,A,,,1,1,1.67,0,25,25,25,1,,,,,,,,,,,,,,,,,,,,,,,,,,
,,,,,,,,,,,,,,,,11,2022-02-07_11h09.34.050,Session1,2020.2.10,Win32,60,,,,,,,,,,,,,,,,,,,,,,,,,,,,,,,,,,SoundMST/Mosquito_B.wav,2,3,NEW,A,,,1,0,9.466,0,26,26,26,1,,,,,,,,,,,,,,,,,,,,,,,,,,
,,,,,,,,,,,,,,,,11,2022-02-07_11h09.34.050,Session1,2020.2.10,Win32,60,,,,,,,,,,,,,,,,,,,,,,,,,,,,,,,,,,SoundMST/Cough_I.wav,2,3,NEW,A,,,2,1,0.755,0,27,27,27,1,,,,,,,,,,,,,,,,,,,,,,,,,,
,,,,,,,,,,,,,,,,11,2022-02-07_11h09.34.050,Session1,2020.2.10,Win32,60,,,,,,,,,,,,,,,,,,,,,,,,,,,,,,,,,,SoundMST/Elephant_A.wav,2,2,SIMILAR,A,,,2,1,10.347,0,28,28,28,1,,,,,,,,,,,,,,,,,,,,,,,,,,
,,,,,,,,,,,,,,,,11,2022-02-07_11h09.34.050,Session1,2020.2.10,Win32,60,,,,,,,,,,,,,,,,,,,,,,,,,,,,,,,,,,SoundMST/Cuckoo_A.wav,1,1,OLD,A,,,1,1,1.273,0,29,29,29,1,,,,,,,,,,,,,,,,,,,,,,,,,,
,,,,,,,,,,,,,,,,11,2022-02-07_11h09.34.050,Session1,2020.2.10,Win32,60,,,,,,,,,,,,,,,,,,,,,,,,,,,,,,,,,,SoundMST/Baby_C.wav,2,3,NEW,A,,,2,1,1.751,0,30,30,30,1,,,,,,,,,,,,,,,,,,,,,,,,,,
,,,,,,,,,,,,,,,,11,2022-02-07_11h09.34.050,Session1,2020.2.10,Win32,60,,,,,,,,,,,,,,,,,,,,,,,,,,,,,,,,,,SoundMST/Duck_A.wav,2,2,SIMILAR,A,,,2,1,4.957,0,31,31,31,1,,,,,,,,,,,,,,,,,,,,,,,,,,
,,,,,,,,,,,,,,,,11,2022-02-07_11h09.34.050,Session1,2020.2.10,Win32,60,,,,,,,,,,,,,,,,,,,,,,,,,,,,,,,,,,SoundMST/Chime_D.wav,2,3,NEW,A,,,2,1,1.142,0,32,32,32,1,,,,,,,,,,,,,,,,,,,,,,,,,,
,,,,,,,,,,,,,,,,11,2022-02-07_11h09.34.050,Session1,2020.2.10,Win32,60,,,,,,,,,,,,,,,,,,,,,,,,,,,,,,,,,,SoundMST/Faucet_A.wav,2,3,NEW,A,,,2,1,2.902,0,33,33,33,1,,,,,,,,,,,,,,,,,,,,,,,,,,
,,,,,,,,,,,,,,,,11,2022-02-07_11h09.34.050,Session1,2020.2.10,Win32,60,,,,,,,,,,,,,,,,,,,,,,,,,,,,,,,,,,SoundMST/Camera.wav,1,1,OLD,A,,,1,1,2.199,0,34,34,34,1,,,,,,,,,,,,,,,,,,,,,,,,,,
,,,,,,,,,,,,,,,,11,2022-02-07_11h09.34.050,Session1,2020.2.10,Win32,60,,,,,,,,,,,,,,,,,,,,,,,,,,,,,,,,,,SoundMST/Bird_C.wav,2,3,NEW,A,,,2,1,2.391,0,35,35,35,1,,,,,,,,,,,,,,,,,,,,,,,,,,
,,,,,,,,,,,,,,,,11,2022-02-07_11h09.34.050,Session1,2020.2.10,Win32,60,,,,,,,,,,,,,,,,,,,,,,,,,,,,,,,,,,SoundMST/Steam.wav,1,1,OLD,A,,,1,1,1.986,0,36,36,36,1,,,,,,,,,,,,,,,,,,,,,,,,,,
,,,,,,,,,,,,,,,,11,2022-02-07_11h09.34.050,Session1,2020.2.10,Win32,60,,,,,,,,,,,,,,,,,,,,,,,,,,,,,,,,,,SoundMST/Phone_E.wav,2,2,SIMILAR,A,,,1,0,2.77,0,37,37,37,1,,,,,,,,,,,,,,,,,,,,,,,,,,
,,,,,,,,,,,,,,,,11,2022-02-07_11h09.34.050,Session1,2020.2.10,Win32,60,,,,,,,,,,,,,,,,,,,,,,,,,,,,,,,,,,SoundMST/Snore_E.wav,2,2,SIMILAR,A,,,1,0,3.586,0,38,38,38,1,,,,,,,,,,,,,,,,,,,,,,,,,,
,,,,,,,,,,,,,,,,11,2022-02-07_11h09.34.050,Session1,2020.2.10,Win32,60,,,,,,,,,,,,,,,,,,,,,,,,,,,,,,,,,,SoundMST/Goat_C.wav,1,1,OLD,A,,,1,1,5.583,0,39,39,39,1,,,,,,,,,,,,,,,,,,,,,,,,,,
,,,,,,,,,,,,,,,,11,2022-02-07_11h09.34.050,Session1,2020.2.10,Win32,60,,,,,,,,,,,,,,,,,,,,,,,,,,,,,,,,,,SoundMST/Chime_A.wav,2,2,SIMILAR,A,,,2,1,8.665,0,40,40,40,1,,,,,,,,,,,,,,,,,,,,,,,,,,
,,,,,,,,,,,,,,,,11,2022-02-07_11h09.34.050,Session1,2020.2.10,Win32,60,,,,,,,,,,,,,,,,,,,,,,,,,,,,,,,,,,SoundMST/Faucet_C.wav,2,2,SIMILAR,A,,,1,0,2.252,0,41,41,41,1,,,,,,,,,,,,,,,,,,,,,,,,,,
,,,,,,,,,,,,,,,,11,2022-02-07_11h09.34.050,Session1,2020.2.10,Win32,60,,,,,,,,,,,,,,,,,,,,,,,,,,,,,,,,,,SoundMST/Bullfrog.wav,2,3,NEW,A,,,2,1,2.176,0,42,42,42,1,,,,,,,,,,,,,,,,,,,,,,,,,,
,,,,,,,,,,,,,,,,11,2022-02-07_11h09.34.050,Session1,2020.2.10,Win32,60,,,,,,,,,,,,,,,,,,,,,,,,,,,,,,,,,,SoundMST/Mosquito_B.wav,1,1,OLD,A,,,1,1,1.718,0,43,43,43,1,,,,,,,,,,,,,,,,,,,,,,,,,,
,,,,,,,,,,,,,,,,11,2022-02-07_11h09.34.050,Session1,2020.2.10,Win32,60,,,,,,,,,,,,,,,,,,,,,,,,,,,,,,,,,,SoundMST/Guitar_B.wav,2,3,NEW,A,,,2,1,6.519,0,44,44,44,1,,,,,,,,,,,,,,,,,,,,,,,,,,
,,,,,,,,,,,,,,,,11,2022-02-07_11h09.34.050,Session1,2020.2.10,Win32,60,,,,,,,,,,,,,,,,,,,,,,,,,,,,,,,,,,SoundMST/Baby_B.wav,2,2,SIMILAR,A,,,1,0,1.803,0,45,45,45,1,,,,,,,,,,,,,,,,,,,,,,,,,,
,,,,,,,,,,,,,,,,11,2022-02-07_11h09.34.050,Session1,2020.2.10,Win32,60,,,,,,,,,,,,,,,,,,,,,,,,,,,,,,,,,,SoundMST/Sleighbells_B.wav,2,3,NEW,A,,,2,1,1.59,0,46,46,46,1,,,,,,,,,,,,,,,,,,,,,,,,,,
,,,,,,,,,,,,,,,,11,2022-02-07_11h09.34.050,Session1,2020.2.10,Win32,60,,,,,,,,,,,,,,,,,,,,,,,,,,,,,,,,,,SoundMST/Cat_A.wav,2,3,NEW,A,,,2,1,1.292,0,47,47,47,1,,,,,,,,,,,,,,,,,,,,,,,,,,
,,,,,,,,,,,,,,,,11,2022-02-07_11h09.34.050,Session1,2020.2.10,Win32,60,,,,,,,,,,,,,,,,,,,,,,,,,,,,,,,,,,SoundMST/Airhorn.wav,2,3,NEW,A,,,2,1,1.567,0,48,48,48,1,,,,,,,,,,,,,,,,,,,,,,,,,,
,,,,,,,,,,,,,,,,11,2022-02-07_11h09.34.050,Session1,2020.2.10,Win32,60,,,,,,,,,,,,,,,,,,,,,,,,,,,,,,,,,,SoundMST/Bird_A.wav,2,2,SIMILAR,A,,,2,1,1.768,0,49,49,49,1,,,,,,,,,,,,,,,,,,,,,,,,,,
,,,,,,,,,,,,,,,,11,2022-02-07_11h09.34.050,Session1,2020.2.10,Win32,60,,,,,,,,,,,,,,,,,,,,,,,,,,,,,,,,,,SoundMST/Laugh_A.wav,2,3,NEW,A,,,2,1,0.902,0,50,50,50,1,,,,,,,,,,,,,,,,,,,,,,,,,,
,,,,,,,,,,,,,,,,11,2022-02-07_11h09.34.050,Session1,2020.2.10,Win32,60,,,,,,,,,,,,,,,,,,,,,,,,,,,,,,,,,,SoundMST/Dog_H.wav,2,3,NEW,A,,,2,1,0.82,0,51,51,51,1,,,,,,,,,,,,,,,,,,,,,,,,,,
,,,,,,,,,,,,,,,,11,2022-02-07_11h09.34.050,Session1,2020.2.10,Win32,60,,,,,,,,,,,,,,,,,,,,,,,,,,,,,,,,,,SoundMST/Cough_J.wav,2,2,SIMILAR,A,,,1,0,2.685,0,52,52,52,1,,,,,,,,,,,,,,,,,,,,,,,,,,
,,,,,,,,,,,,,,,,11,2022-02-07_11h09.34.050,Session1,2020.2.10,Win32,60,,,,,,,,,,,,,,,,,,,,,,,,,,,,,,,,,,SoundMST/Donkey.wav,2,3,NEW,A,,,2,1,1.308,0,53,53,53,1,,,,,,,,,,,,,,,,,,,,,,,,,,
,,,,,,,,,,,,,,,,11,2022-02-07_11h09.34.050,Session1,2020.2.10,Win32,60,,,,,,,,,,,,,,,,,,,,,,,,,,,,,,,,,,SoundMST/Slurp.wav,2,3,NEW,A,,,1,0,10.502,0,54,54,54,1,,,,,,,,,,,,,,,,,,,,,,,,,,
,,,,,,,,,,,,,,,,11,2022-02-07_11h09.34.050,Session1,2020.2.10,Win32,60,,,,,,,,,,,,,,,,,,,,,,,,,,,,,,,,,,SoundMST/Airhorn.wav,1,1,OLD,A,,,1,1,0.552,0,55,55,55,1,,,,,,,,,,,,,,,,,,,,,,,,,,
,,,,,,,,,,,,,,,,11,2022-02-07_11h09.34.050,Session1,2020.2.10,Win32,60,,,,,,,,,,,,,,,,,,,,,,,,,,,,,,,,,,SoundMST/Cat_A.wav,1,1,OLD,A,,,1,1,3.285,0,56,56,56,1,,,,,,,,,,,,,,,,,,,,,,,,,,
,,,,,,,,,,,,,,,,11,2022-02-07_11h09.34.050,Session1,2020.2.10,Win32,60,,,,,,,,,,,,,,,,,,,,,,,,,,,,,,,,,,SoundMST/Hammer_A.wav,2,3,NEW,A,,,2,1,1.901,0,57,57,57,1,,,,,,,,,,,,,,,,,,,,,,,,,,
,,,,,,,,,,,,,,,,11,2022-02-07_11h09.34.050,Session1,2020.2.10,Win32,60,,,,,,,,,,,,,,,,,,,,,,,,,,,,,,,,,,SoundMST/Guitar_B.wav,1,1,OLD,A,,,1,1,0.723,0,58,58,58,1,,,,,,,,,,,,,,,,,,,,,,,,,,
,,,,,,,,,,,,,,,,11,2022-02-07_11h09.34.050,Session1,2020.2.10,Win32,60,,,,,,,,,,,,,,,,,,,,,,,,,,,,,,,,,,SoundMST/Howl.wav,2,3,NEW,A,,,2,1,1.702,0,59,59,59,1,,,,,,,,,,,,,,,,,,,,,,,,,,
,,,,,,,,,,,,,,,,11,2022-02-07_11h09.34.050,Session1,2020.2.10,Win32,60,,,,,,,,,,,,,,,,,,,,,,,,,,,,,,,,,,SoundMST/Bullfrog.wav,1,1,OLD,A,,,2,0,19.892,0,60,60,60,1,,,,,,,,,,,,,,,,,,,,,,,,,,
,,,,,,,,,,,,,,,,11,2022-02-07_11h09.34.050,Session1,2020.2.10,Win32,60,,,,,,,,,,,,,,,,,,,,,,,,,,,,,,,,,,SoundMST/Printer.wav,2,3,NEW,A,,,2,1,1.903,0,61,61,61,1,,,,,,,,,,,,,,,,,,,,,,,,,,
,,,,,,,,,,,,,,,,11,2022-02-07_11h09.34.050,Session1,2020.2.10,Win32,60,,,,,,,,,,,,,,,,,,,,,,,,,,,,,,,,,,SoundMST/Horse.wav,2,3,NEW,A,,,2,1,2.171,0,62,62,62,1,,,,,,,,,,,,,,,,,,,,,,,,,,
,,,,,,,,,,,,,,,,11,2022-02-07_11h09.34.050,Session1,2020.2.10,Win32,60,,,,,,,,,,,,,,,,,,,,,,,,,,,,,,,,,,SoundMST/Airplane_B.wav,2,3,NEW,A,,,2,1,1.387,0,63,63,63,1,,,,,,,,,,,,,,,,,,,,,,,,,,
,,,,,,,,,,,,,,,,11,2022-02-07_11h09.34.050,Session1,2020.2.10,Win32,60,,,,,,,,,,,,,,,,,,,,,,,,,,,,,,,,,,SoundMST/Pour_F.wav,2,3,NEW,A,,,1,0,1.536,0,64,64,64,1,,,,,,,,,,,,,,,,,,,,,,,,,,
,,,,,,,,,,,,,,,,11,2022-02-07_11h09.34.050,Session1,2020.2.10,Win32,60,,,,,,,,,,,,,,,,,,,,,,,,,,,,,,,,,,SoundMST/Dog_I.wav,2,2,SIMILAR,A,,,1,0,12.764,0,65,65,65,1,,,,,,,,,,,,,,,,,,,,,,,,,,
,,,,,,,,,,,,,,,,11,2022-02-07_11h09.34.050,Session1,2020.2.10,Win32,60,,,,,,,,,,,,,,,,,,,,,,,,,,,,,,,,,,SoundMST/Donkey.wav,1,1,OLD,A,,,1,1,1.101,0,66,66,66,1,,,,,,,,,,,,,,,,,,,,,,,,,,
,,,,,,,,,,,,,,,,11,2022-02-07_11h09.34.050,Session1,2020.2.10,Win32,60,,,,,,,,,,,,,,,,,,,,,,,,,,,,,,,,,,SoundMST/Slurp.wav,1,1,OLD,A,,,1,1,1.39,0,67,67,67,1,,,,,,,,,,,,,,,,,,,,,,,,,,
,,,,,,,,,,,,,,,,11,2022-02-07_11h09.34.050,Session1,2020.2.10,Win32,60,,,,,,,,,,,,,,,,,,,,,,,,,,,,,,,,,,SoundMST/HairDryer_A.wav,2,3,NEW,A,,,1,0,2.951,0,68,68,68,1,,,,,,,,,,,,,,,,,,,,,,,,,,
,,,,,,,,,,,,,,,,11,2022-02-07_11h09.34.050,Session1,2020.2.10,Win32,60,,,,,,,,,,,,,,,,,,,,,,,,,,,,,,,,,,SoundMST/Thunder_A.wav,2,3,NEW,A,,,2,1,1.519,0,69,69,69,1,,,,,,,,,,,,,,,,,,,,,,,,,,
,,,,,,,,,,,,,,,,11,2022-02-07_11h09.34.050,Session1,2020.2.10,Win32,60,,,,,,,,,,,,,,,,,,,,,,,,,,,,,,,,,,SoundMST/Sleighbells_B.wav,1,1,OLD,A,,,1,1,1.288,0,70,70,70,1,,,,,,,,,,,,,,,,,,,,,,,,,,
,,,,,,,,,,,,,,,,11,2022-02-07_11h09.34.050,Session1,2020.2.10,Win32,60,,,,,,,,,,,,,,,,,,,,,,,,,,,,,,,,,,SoundMST/Laugh_D.wav,2,2,SIMILAR,A,,,1,0,1.439,0,71,71,71,1,,,,,,,,,,,,,,,,,,,,,,,,,,
,,,,,,,,,,,,,,,,11,2022-02-07_11h09.34.050,Session1,2020.2.10,Win32,60,,,,,,,,,,,,,,,,,,,,,,,,,,,,,,,,,,SoundMST/Toilet_B.wav,2,3,NEW,A,,,1,0,0.509,0,72,72,72,1,,,,,,,,,,,,,,,,,,,,,,,,,,
,,,,,,,,,,,,,,,,11,2022-02-07_11h09.34.050,Session1,2020.2.10,Win32,60,,,,,,,,,,,,,,,,,,,,,,,,,,,,,,,,,,SoundMST/Howl.wav,1,1,OLD,A,,,1,1,1.039,0,73,73,73,1,,,,,,,,,,,,,,,,,,,,,,,,,,
,,,,,,,,,,,,,,,,11,2022-02-07_11h09.34.050,Session1,2020.2.10,Win32,60,,,,,,,,,,,,,,,,,,,,,,,,,,,,,,,,,,SoundMST/Footsteps_C.wav,2,3,NEW,A,,,2,1,1.319,0,74,74,74,1,,,,,,,,,,,,,,,,,,,,,,,,,,
,,,,,,,,,,,,,,,,11,2022-02-07_11h09.34.050,Session1,2020.2.10,Win32,60,,,,,,,,,,,,,,,,,,,,,,,,,,,,,,,,,,SoundMST/Cup.wav,2,3,NEW,A,,,2,1,2.572,0,75,75,75,1,,,,,,,,,,,,,,,,,,,,,,,,,,
,,,,,,,,,,,,,,,,11,2022-02-07_11h09.34.050,Session1,2020.2.10,Win32,60,,,,,,,,,,,,,,,,,,,,,,,,,,,,,,,,,,SoundMST/Pour_C.wav,2,2,SIMILAR,A,,,1,0,3.803,0,76,76,76,1,,,,,,,,,,,,,,,,,,,,,,,,,,
,,,,,,,,,,,,,,,,11,2022-02-07_11h09.34.050,Session1,2020.2.10,Win32,60,,,,,,,,,,,,,,,,,,,,,,,,,,,,,,,,,,SoundMST/Sneeze_B.wav,2,3,NEW,A,,,2,1,1.938,0,77,77,77,1,,,,,,,,,,,,,,,,,,,,,,,,,,
,,,,,,,,,,,,,,,,11,2022-02-07_11h09.34.050,Session1,2020.2.10,Win32,60,,,,,,,,,,,,,,,,,,,,,,,,,,,,,,,,,,SoundMST/Airplane_B.wav,1,1,OLD,A,,,1,1,1.074,0,78,78,78,1,,,,,,,,,,,,,,,,,,,,,,,,,,
,,,,,,,,,,,,,,,,11,2022-02-07_11h09.34.050,Session1,2020.2.10,Win32,60,,,,,,,,,,,,,,,,,,,,,,,,,,,,,,,,,,SoundMST/HairDryer_A.wav,1,1,OLD,A,,,1,1,1.036,0,79,79,79,1,,,,,,,,,,,,,,,,,,,,,,,,,,
,,,,,,,,,,,,,,,,11,2022-02-07_11h09.34.050,Session1,2020.2.10,Win32,60,,,,,,,,,,,,,,,,,,,,,,,,,,,,,,,,,,SoundMST/Hammer_A.wav,1,1,OLD,A,,,1,1,2.472,0,80,80,80,1,,,,,,,,,,,,,,,,,,,,,,,,,,
,,,,,,,,,,,,,,,,11,2022-02-07_11h09.34.050,Session1,2020.2.10,Win32,60,,,,,,,,,,,,,,,,,,,,,,,,,,,,,,,,,,SoundMST/Printer.wav,1,1,OLD,A,,,1,1,1.102,0,81,81,81,1,,,,,,,,,,,,,,,,,,,,,,,,,,
,,,,,,,,,,,,,,,,11,2022-02-07_11h09.34.050,Session1,2020.2.10,Win32,60,,,,,,,,,,,,,,,,,,,,,,,,,,,,,,,,,,SoundMST/Thunder_A.wav,1,1,OLD,A,,,1,1,0.56,0,82,82,82,1,,,,,,,,,,,,,,,,,,,,,,,,,,
,,,,,,,,,,,,,,,,11,2022-02-07_11h09.34.050,Session1,2020.2.10,Win32,60,,,,,,,,,,,,,,,,,,,,,,,,,,,,,,,,,,SoundMST/Cow.wav,2,3,NEW,A,,,1,0,6.385,0,83,83,83,1,,,,,,,,,,,,,,,,,,,,,,,,,,
,,,,,,,,,,,,,,,,11,2022-02-07_11h09.34.050,Session1,2020.2.10,Win32,60,,,,,,,,,,,,,,,,,,,,,,,,,,,,,,,,,,SoundMST/Cup.wav,1,1,OLD,A,,,1,1,5.153,0,84,84,84,1,,,,,,,,,,,,,,,,,,,,,,,,,,
,,,,,,,,,,,,,,,,11,2022-02-07_11h09.34.050,Session1,2020.2.10,Win32,60,,,,,,,,,,,,,,,,,,,,,,,,,,,,,,,,,,SoundMST/Growl_H.wav,2,3,NEW,A,,,2,1,2.502,0,85,85,85,1,,,,,,,,,,,,,,,,,,,,,,,,,,
,,,,,,,,,,,,,,,,11,2022-02-07_11h09.34.050,Session1,2020.2.10,Win32,60,,,,,,,,,,,,,,,,,,,,,,,,,,,,,,,,,,SoundMST/Horse.wav,1,1,OLD,A,,,1,1,0.978,0,86,86,86,1,,,,,,,,,,,,,,,,,,,,,,,,,,
,,,,,,,,,,,,,,,,11,2022-02-07_11h09.34.050,Session1,2020.2.10,Win32,60,,,,,,,,,,,,,,,,,,,,,,,,,,,,,,,,,,SoundMST/Footsteps_F.wav,2,2,SIMILAR,A,,,1,0,1.208,0,87,87,87,1,,,,,,,,,,,,,,,,,,,,,,,,,,
,,,,,,,,,,,,,,,,11,2022-02-07_11h09.34.050,Session1,2020.2.10,Win32,60,,,,,,,,,,,,,,,,,,,,,,,,,,,,,,,,,,SoundMST/DialTone.wav,2,3,NEW,A,,,2,1,1.587,0,88,88,88,1,,,,,,,,,,,,,,,,,,,,,,,,,,
,,,,,,,,,,,,,,,,11,2022-02-07_11h09.34.050,Session1,2020.2.10,Win32,60,,,,,,,,,,,,,,,,,,,,,,,,,,,,,,,,,,SoundMST/Sneeze_B.wav,1,1,OLD,A,,,1,1,1.239,0,89,89,89,1,,,,,,,,,,,,,,,,,,,,,,,,,,
,,,,,,,,,,,,,,,,11,2022-02-07_11h09.34.050,Session1,2020.2.10,Win32,60,,,,,,,,,,,,,,,,,,,,,,,,,,,,,,,,,,SoundMST/Typing.wav,2,3,NEW,A,,,2,1,4.251,0,90,90,90,1,,,,,,,,,,,,,,,,,,,,,,,,,,
,,,,,,,,,,,,,,,,11,2022-02-07_11h09.34.050,Session1,2020.2.10,Win32,60,,,,,,,,,,,,,,,,,,,,,,,,,,,,,,,,,,SoundMST/Clap_A.wav,2,3,NEW,A,,,2,1,1.369,0,91,91,91,1,,,,,,,,,,,,,,,,,,,,,,,,,,
,,,,,,,,,,,,,,,,11,2022-02-07_11h09.34.050,Session1,2020.2.10,Win32,60,,,,,,,,,,,,,,,,,,,,,,,,,,,,,,,,,,SoundMST/Cow.wav,1,1,OLD,A,,,1,1,1.634,0,92,92,92,1,,,,,,,,,,,,,,,,,,,,,,,,,,
,,,,,,,,,,,,,,,,11,2022-02-07_11h09.34.050,Session1,2020.2.10,Win32,60,,,,,,,,,,,,,,,,,,,,,,,,,,,,,,,,,,SoundMST/Droplet_B.wav,2,3,NEW,A,,,2,1,2.851,0,93,93,93,1,,,,,,,,,,,,,,,,,,,,,,,,,,
,,,,,,,,,,,,,,,,11,2022-02-07_11h09.34.050,Session1,2020.2.10,Win32,60,,,,,,,,,,,,,,,,,,,,,,,,,,,,,,,,,,SoundMST/Toilet_B.wav,1,1,OLD,A,,,1,1,1.002,0,94,94,94,1,,,,,,,,,,,,,,,,,,,,,,,,,,
,,,,,,,,,,,,,,,,11,2022-02-07_11h09.34.050,Session1,2020.2.10,Win32,60,,,,,,,,,,,,,,,,,,,,,,,,,,,,,,,,,,SoundMST/Wind_B.wav,2,3,NEW,A,,,2,1,4.518,0,95,95,95,1,,,,,,,,,,,,,,,,,,,,,,,,,,
,,,,,,,,,,,,,,,,11,2022-02-07_11h09.34.050,Session1,2020.2.10,Win32,60,,,,,,,,,,,,,,,,,,,,,,,,,,,,,,,,,,SoundMST/Whistle_B.wav,2,3,NEW,A,,,2,1,1.454,0,96,96,96,1,,,,,,,,,,,,,,,,,,,,,,,,,,
,,,,,,,,,,,,,,,,11,2022-02-07_11h09.34.050,Session1,2020.2.10,Win32,60,,,,,,,,,,,,,,,,,,,,,,,,,,,,,,,,,,SoundMST/DialTone.wav,1,1,OLD,A,,,1,1,0.036,0,97,97,97,1,,,,,,,,,,,,,,,,,,,,,,,,,,
,,,,,,,,,,,,,,,,11,2022-02-07_11h09.34.050,Session1,2020.2.10,Win32,60,,,,,,,,,,,,,,,,,,,,,,,,,,,,,,,,,,SoundMST/Fireworks.wav,2,3,NEW,A,,,2,1,3.335,0,98,98,98,1,,,,,,,,,,,,,,,,,,,,,,,,,,
,,,,,,,,,,,,,,,,11,2022-02-07_11h09.34.050,Session1,2020.2.10,Win32,60,,,,,,,,,,,,,,,,,,,,,,,,,,,,,,,,,,SoundMST/Growl_H.wav,1,1,OLD,A,,,1,1,0.968,0,99,99,99,1,,,,,,,,,,,,,,,,,,,,,,,,,,
,,,,,,,,,,,,,,,,11,2022-02-07_11h09.34.050,Session1,2020.2.10,Win32,60,,,,,,,,,,,,,,,,,,,,,,,,,,,,,,,,,,SoundMST/Typing.wav,1,1,OLD,A,,,1,1,3.768,0,100,100,100,1,,,,,,,,,,,,,,,,,,,,,,,,,,
,,,,,,,,,,,,,,,,11,2022-02-07_11h09.34.050,Session1,2020.2.10,Win32,60,,,,,,,,,,,,,,,,,,,,,,,,,,,,,,,,,,SoundMST/Bagpipe.wav,2,3,NEW,A,,,2,1,0.707,0,101,101,101,1,,,,,,,,,,,,,,,,,,,,,,,,,,
,,,,,,,,,,,,,,,,11,2022-02-07_11h09.34.050,Session1,2020.2.10,Win32,60,,,,,,,,,,,,,,,,,,,,,,,,,,,,,,,,,,SoundMST/Siren_E.wav,2,3,NEW,A,,,2,1,2.62,0,102,102,102,1,,,,,,,,,,,,,,,,,,,,,,,,,,
,,,,,,,,,,,,,,,,11,2022-02-07_11h09.34.050,Session1,2020.2.10,Win32,60,,,,,,,,,,,,,,,,,,,,,,,,,,,,,,,,,,SoundMST/Droplet_B.wav,1,1,OLD,A,,,1,1,10.389,0,103,103,103,1,,,,,,,,,,,,,,,,,,,,,,,,,,
,,,,,,,,,,,,,,,,11,2022-02-07_11h09.34.050,Session1,2020.2.10,Win32,60,,,,,,,,,,,,,,,,,,,,,,,,,,,,,,,,,,SoundMST/Wind_B.wav,1,1,OLD,A,,,1,1,0.769,0,104,104,104,1,,,,,,,,,,,,,,,,,,,,,,,,,,
,,,,,,,,,,,,,,,,11,2022-02-07_11h09.34.050,Session1,2020.2.10,Win32,60,,,,,,,,,,,,,,,,,,,,,,,,,,,,,,,,,,SoundMST/IceDrop.wav,2,3,NEW,A,,,2,1,1.352,0,105,105,105,1,,,,,,,,,,,,,,,,,,,,,,,,,,
,,,,,,,,,,,,,,,,11,2022-02-07_11h09.34.050,Session1,2020.2.10,Win32,60,,,,,,,,,,,,,,,,,,,,,,,,,,,,,,,,,,SoundMST/Clap_D.wav,2,2,SIMILAR,A,,,2,1,1.641,0,106,106,106,1,,,,,,,,,,,,,,,,,,,,,,,,,,
,,,,,,,,,,,,,,,,11,2022-02-07_11h09.34.050,Session1,2020.2.10,Win32,60,,,,,,,,,,,,,,,,,,,,,,,,,,,,,,,,,,SoundMST/PaperRip.wav,2,3,NEW,A,,,2,1,2.025,0,107,107,107,1,,,,,,,,,,,,,,,,,,,,,,,,,,
,,,,,,,,,,,,,,,,11,2022-02-07_11h09.34.050,Session1,2020.2.10,Win32,60,,,,,,,,,,,,,,,,,,,,,,,,,,,,,,,,,,SoundMST/Chomp_A.wav,2,3,NEW,A,,,2,1,2.884,0,108,108,108,1,,,,,,,,,,,,,,,,,,,,,,,,,,
,,,,,,,,,,,,,,,,11,2022-02-07_11h09.34.050,Session1,2020.2.10,Win32,60,,,,,,,,,,,,,,,,,,,,,,,,,,,,,,,,,,SoundMST/Whistle_C.wav,2,2,SIMILAR,A,,,2,1,7.866,0,109,109,109,1,,,,,,,,,,,,,,,,,,,,,,,,,,
,,,,,,,,,,,,,,,,11,2022-02-07_11h09.34.050,Session1,2020.2.10,Win32,60,,,,,,,,,,,,,,,,,,,,,,,,,,,,,,,,,,SoundMST/Fireworks.wav,1,1,OLD,A,,,1,1,3.584,0,110,110,110,1,,,,,,,,,,,,,,,,,,,,,,,,,,
,,,,,,,,,,,,,,,,11,2022-02-07_11h09.34.050,Session1,2020.2.10,Win32,60,,,,,,,,,,,,,,,,,,,,,,,,,,,,,,,,,,SoundMST/Crow_A.wav,2,3,NEW,A,,,1,0,9.332,0,111,111,111,1,,,,,,,,,,,,,,,,,,,,,,,,,,
,,,,,,,,,,,,,,,,11,2022-02-07_11h09.34.050,Session1,2020.2.10,Win32,60,,,,,,,,,,,,,,,,,,,,,,,,,,,,,,,,,,SoundMST/Bagpipe.wav,1,1,OLD,A,,,1,1,0.651,0,112,112,112,1,,,,,,,,,,,,,,,,,,,,,,,,,,
,,,,,,,,,,,,,,,,11,2022-02-07_11h09.34.050,Session1,2020.2.10,Win32,60,,,,,,,,,,,,,,,,,,,,,,,,,,,,,,,,,,SoundMST/Bowlingpins.wav,2,3,NEW,A,,,1,0,1.291,0,113,113,113,1,,,,,,,,,,,,,,,,,,,,,,,,,,
,,,,,,,,,,,,,,,,11,2022-02-07_11h09.34.050,Session1,2020.2.10,Win32,60,,,,,,,,,,,,,,,,,,,,,,,,,,,,,,,,,,SoundMST/Siren_A.wav,2,2,SIMILAR,A,,,2,1,1.434,0,114,114,114,1,,,,,,,,,,,,,,,,,,,,,,,,,,
,,,,,,,,,,,,,,,,11,2022-02-07_11h09.34.050,Session1,2020.2.10,Win32,60,,,,,,,,,,,,,,,,,,,,,,,,,,,,,,,,,,SoundMST/ManWhistle.wav,2,3,NEW,A,,,2,1,1.57,0,115,115,115,1,,,,,,,,,,,,,,,,,,,,,,,,,,
,,,,,,,,,,,,,,,,11,2022-02-07_11h09.34.050,Session1,2020.2.10,Win32,60,,,,,,,,,,,,,,,,,,,,,,,,,,,,,,,,,,SoundMST/Coin_D.wav,2,3,NEW,A,,,1,0,2.603,0,116,116,116,1,,,,,,,,,,,,,,,,,,,,,,,,,,
,,,,,,,,,,,,,,,,11,2022-02-07_11h09.34.050,Session1,2020.2.10,Win32,60,,,,,,,,,,,,,,,,,,,,,,,,,,,,,,,,,,SoundMST/PaperRip.wav,1,1,OLD,A,,,1,1,2.185,0,117,117,117,1,,,,,,,,,,,,,,,,,,,,,,,,,,
,,,,,,,,,,,,,,,,11,2022-02-07_11h09.34.050,Session1,2020.2.10,Win32,60,,,,,,,,,,,,,,,,,,,,,,,,,,,,,,,,,,SoundMST/Helicopter_A.wav,2,3,NEW,A,,,2,1,1.303,0,118,118,118,1,,,,,,,,,,,,,,,,,,,,,,,,,,
,,,,,,,,,,,,,,,,11,2022-02-07_11h09.34.050,Session1,2020.2.10,Win32,60,,,,,,,,,,,,,,,,,,,,,,,,,,,,,,,,,,SoundMST/Bubbles_A.wav,2,3,NEW,A,,,1,0,7.782,0,119,119,119,1,,,,,,,,,,,,,,,,,,,,,,,,,,
,,,,,,,,,,,,,,,,11,2022-02-07_11h09.34.050,Session1,2020.2.10,Win32,60,,,,,,,,,,,,,,,,,,,,,,,,,,,,,,,,,,SoundMST/Chomp_C.wav,2,2,SIMILAR,A,,,2,1,6.512,0,120,120,120,1,,,,,,,,,,,,,,,,,,,,,,,,,,
,,,,,,,,,,,,,,,,11,2022-02-07_11h09.34.050,Session1,2020.2.10,Win32,60,,,,,,,,,,,,,,,,,,,,,,,,,,,,,,,,,,SoundMST/Crow_A.wav,1,1,OLD,A,,,1,1,1.586,0,121,121,121,1,,,,,,,,,,,,,,,,,,,,,,,,,,
,,,,,,,,,,,,,,,,11,2022-02-07_11h09.34.050,Session1,2020.2.10,Win32,60,,,,,,,,,,,,,,,,,,,,,,,,,,,,,,,,,,SoundMST/IceDrop.wav,1,1,OLD,A,,,1,1,1.401,0,122,122,122,1,,,,,,,,,,,,,,,,,,,,,,,,,,
,,,,,,,,,,,,,,,,11,2022-02-07_11h09.34.050,Session1,2020.2.10,Win32,60,,,,,,,,,,,,,,,,,,,,,,,,,,,,,,,,,,SoundMST/ManWhistle_E.wav,2,2,SIMILAR,A,,,2,1,3.735,0,123,123,123,1,,,,,,,,,,,,,,,,,,,,,,,,,,
,,,,,,,,,,,,,,,,11,2022-02-07_11h09.34.050,Session1,2020.2.10,Win32,60,,,,,,,,,,,,,,,,,,,,,,,,,,,,,,,,,,SoundMST/Helicopter_A.wav,1,1,OLD,A,,,1,1,1.069,0,124,124,124,1,,,,,,,,,,,,,,,,,,,,,,,,,,
,,,,,,,,,,,,,,,,11,2022-02-07_11h09.34.050,Session1,2020.2.10,Win32,60,,,,,,,,,,,,,,,,,,,,,,,,,,,,,,,,,,SoundMST/Bowlingpins.wav,1,1,OLD,A,,,1,1,1.569,0,125,125,125,1,,,,,,,,,,,,,,,,,,,,,,,,,,
,,,,,,,,,,,,,,,,11,2022-02-07_11h09.34.050,Session1,2020.2.10,Win32,60,,,,,,,,,,,,,,,,,,,,,,,,,,,,,,,,,,SoundMST/Coin_E.wav,2,2,SIMILAR,A,,,1,0,2.084,0,126,126,126,1,,,,,,,,,,,,,,,,,,,,,,,,,,
,,,,,,,,,,,,,,,,11,2022-02-07_11h09.34.050,Session1,2020.2.10,Win32,60,,,,,,,,,,,,,,,,,,,,,,,,,,,,,,,,,,SoundMST/Bubbles_B.wav,2,2,SIMILAR,A,,,1,0,1.369,0,127,127,127,1,,,,,,,,,,,,,,,,,,,,,,,,,,
,,,,,,,,,,,,,,,,11,2022-02-07_11h09.34.050,Session1,2020.2.10,Win32,60,,,,,,,,,,,,,,,,,,,,,,,,,,,,,,,,,,,,,,,,,,,,,,,,,0,0,0,0,1,,,,,,,,,,,,,,,,,,,,,
,,,,,,,,,,,,,,,,11,2022-02-07_11h09.34.050,Session1,2020.2.10,Win32,60,,,,,,,,,,,,,,,,,,,,,space,44.531,,,,,,,,,,,,,,,,,,,,,,,,,,,,,,,,space,83.208,2,5.448,0,0,0,3,1,SoundMST/CarStart_E.wav,SoundMST/CarStart_D.wav,SIMILAR,,,,,,,,,
,,,,,,,,,,,,,,,,11,2022-02-07_11h09.34.050,Session1,2020.2.10,Win32,60,,,,,,,,,,,,,,,,,,,,,,,,,,,,,,,,,,,,,,,,,,,,,,,,,,,,,,,,2,2.138,0,1,1,1,1,SoundMST/Bird_C.wav,SoundMST/Bird_A.wav,SIMILAR,,,,,,,,,
,,,,,,,,,,,,,,,,11,2022-02-07_11h09.34.050,Session1,2020.2.10,Win32,60,,,,,,,,,,,,,,,,,,,,,,,,,,,,,,,,,,,,,,,,,,,,,,,,,,,,,,,,4,3.95,0,2,2,53,1,SoundMST/Piano_D.wav,SoundMST/Piano_D.wav,SAME,,,,,,,,,
,,,,,,,,,,,,,,,,11,2022-02-07_11h09.34.050,Session1,2020.2.10,Win32,60,,,,,,,,,,,,,,,,,,,,,,,,,,,,,,,,,,,,,,,,,,,,,,,,,,,,,,,,4,1.518,0,3,3,43,1,SoundMST/Coin_D.wav,SoundMST/Coin_D.wav,SAME,,,,,,,,,
,,,,,,,,,,,,,,,,11,2022-02-07_11h09.34.050,Session1,2020.2.10,Win32,60,,,,,,,,,,,,,,,,,,,,,,,,,,,,,,,,,,,,,,,,,,,,,,,,,,,,,,,,2,1.952,0,4,4,16,1,SoundMST/Phone_F.wav,SoundMST/Phone_E.wav,SIMILAR,,,,,,,,,
,,,,,,,,,,,,,,,,11,2022-02-07_11h09.34.050,Session1,2020.2.10,Win32,60,,,,,,,,,,,,,,,,,,,,,,,,,,,,,,,,,,,,,,,,,,,,,,,,,,,,,,,,4,1.785,0,5,5,33,1,SoundMST/Buzz.wav,SoundMST/Buzz.wav,SAME,,,,,,,,,
,,,,,,,,,,,,,,,,11,2022-02-07_11h09.34.050,Session1,2020.2.10,Win32,60,,,,,,,,,,,,,,,,,,,,,,,,,,,,,,,,,,,,,,,,,,,,,,,,,,,,,,,,3,7.702,0,6,6,19,1,SoundMST/Siren_E.wav,SoundMST/Siren_A.wav,SIMILAR,,,,,,,,,
,,,,,,,,,,,,,,,,11,2022-02-07_11h09.34.050,Session1,2020.2.10,Win32,60,,,,,,,,,,,,,,,,,,,,,,,,,,,,,,,,,,,,,,,,,,,,,,,,,,,,,,,,4,1.761,0,7,7,50,1,SoundMST/Laugh_A.wav,SoundMST/Laugh_A.wav,SAME,,,,,,,,,
,,,,,,,,,,,,,,,,11,2022-02-07_11h09.34.050,Session1,2020.2.10,Win32,60,,,,,,,,,,,,,,,,,,,,,,,,,,,,,,,,,,,,,,,,,,,,,,,,,,,,,,,,4,2.936,0,8,8,45,1,SoundMST/Dog_H.wav,SoundMST/Dog_H.wav,SAME,,,,,,,,,
,,,,,,,,,,,,,,,,11,2022-02-07_11h09.34.050,Session1,2020.2.10,Win32,60,,,,,,,,,,,,,,,,,,,,,,,,,,,,,,,,,,,,,,,,,,,,,,,,,,,,,,,,1,1.535,0,9,9,73,1,SoundMST/Toilet_B.wav,SoundMST/Horse.wav,DIFFERENT,,,,,,,,,
,,,,,,,,,,,,,,,,11,2022-02-07_11h09.34.050,Session1,2020.2.10,Win32,60,,,,,,,,,,,,,,,,,,,,,,,,,,,,,,,,,,,,,,,,,,,,,,,,,,,,,,,,1,1.168,0,10,10,72,1,SoundMST/Steam.wav,SoundMST/Toilet_B.wav,DIFFERENT,,,,,,,,,
,,,,,,,,,,,,,,,,11,2022-02-07_11h09.34.050,Session1,2020.2.10,Win32,60,,,,,,,,,,,,,,,,,,,,,,,,,,,,,,,,,,,,,,,,,,,,,,,,,,,,,,,,4,3.417,0,11,11,25,1,SoundMST/Puff_A.wav,SoundMST/Puff_A.wav,SAME,,,,,,,,,
,,,,,,,,,,,,,,,,11,2022-02-07_11h09.34.050,Session1,2020.2.10,Win32,60,,,,,,,,,,,,,,,,,,,,,,,,,,,,,,,,,,,,,,,,,,,,,,,,,,,,,,,,1,2.059,0,12,12,60,1,SoundMST/Typing.wav,SoundMST/Bullfrog.wav,DIFFERENT,,,,,,,,,
,,,,,,,,,,,,,,,,11,2022-02-07_11h09.34.050,Session1,2020.2.10,Win32,60,,,,,,,,,,,,,,,,,,,,,,,,,,,,,,,,,,,,,,,,,,,,,,,,,,,,,,,,4,1.57,0,13,13,69,1,SoundMST/Airplane_B.wav,SoundMST/Airplane_B.wav,DIFFERENT,,,,,,,,,
,,,,,,,,,,,,,,,,11,2022-02-07_11h09.34.050,Session1,2020.2.10,Win32,60,,,,,,,,,,,,,,,,,,,,,,,,,,,,,,,,,,,,,,,,,,,,,,,,,,,,,,,,4,1.925,0,14,14,58,1,SoundMST/Whistle_B.wav,SoundMST/Whistle_B.wav,SAME,,,,,,,,,
,,,,,,,,,,,,,,,,11,2022-02-07_11h09.34.050,Session1,2020.2.10,Win32,60,,,,,,,,,,,,,,,,,,,,,,,,,,,,,,,,,,,,,,,,,,,,,,,,,,,,,,,,4,3.749,0,15,15,28,1,SoundMST/Fireworks.wav,SoundMST/Fireworks.wav,SAME,,,,,,,,,
,,,,,,,,,,,,,,,,11,2022-02-07_11h09.34.050,Session1,2020.2.10,Win32,60,,,,,,,,,,,,,,,,,,,,,,,,,,,,,,,,,,,,,,,,,,,,,,,,,,,,,,,,4,2.07,0,16,16,40,1,SoundMST/Chime_D.wav,SoundMST/Chime_D.wav,SAME,,,,,,,,,
,,,,,,,,,,,,,,,,11,2022-02-07_11h09.34.050,Session1,2020.2.10,Win32,60,,,,,,,,,,,,,,,,,,,,,,,,,,,,,,,,,,,,,,,,,,,,,,,,,,,,,,,,4,1.785,0,17,17,26,1,SoundMST/Droplet_B.wav,SoundMST/Droplet_B.wav,SAME,,,,,,,,,
,,,,,,,,,,,,,,,,11,2022-02-07_11h09.34.050,Session1,2020.2.10,Win32,60,,,,,,,,,,,,,,,,,,,,,,,,,,,,,,,,,,,,,,,,,,,,,,,,,,,,,,,,3,5.966,0,18,18,20,1,SoundMST/Snore_C.wav,SoundMST/Snore_E.wav,SIMILAR,,,,,,,,,
,,,,,,,,,,,,,,,,11,2022-02-07_11h09.34.050,Session1,2020.2.10,Win32,60,,,,,,,,,,,,,,,,,,,,,,,,,,,,,,,,,,,,,,,,,,,,,,,,,,,,,,,,3,3.154,0,19,19,15,1,SoundMST/ManWhistle.wav,SoundMST/ManWhistle_E.wav,SIMILAR,,,,,,,,,
,,,,,,,,,,,,,,,,11,2022-02-07_11h09.34.050,Session1,2020.2.10,Win32,60,,,,,,,,,,,,,,,,,,,,,,,,,,,,,,,,,,,,,,,,,,,,,,,,,,,,,,,,4,2.185,0,20,20,44,1,SoundMST/Cough_I.wav,SoundMST/Cough_I.wav,SAME,,,,,,,,,
,,,,,,,,,,,,,,,,11,2022-02-07_11h09.34.050,Session1,2020.2.10,Win32,60,,,,,,,,,,,,,,,,,,,,,,,,,,,,,,,,,,,,,,,,,,,,,,,,,,,,,,,,4,1.691,0,21,21,39,1,SoundMST/CarStart_E.wav,SoundMST/CarStart_E.wav,SAME,,,,,,,,,
,,,,,,,,,,,,,,,,11,2022-02-07_11h09.34.050,Session1,2020.2.10,Win32,60,,,,,,,,,,,,,,,,,,,,,,,,,,,,,,,,,,,,,,,,,,,,,,,,,,,,,,,,3,3.336,0,22,22,2,1,SoundMST/Bubbles_A.wav,SoundMST/Bubbles_B.wav,SIMILAR,,,,,,,,,
,,,,,,,,,,,,,,,,11,2022-02-07_11h09.34.050,Session1,2020.2.10,Win32,60,,,,,,,,,,,,,,,,,,,,,,,,,,,,,,,,,,,,,,,,,,,,,,,,,,,,,,,,1,1.418,0,23,23,79,1,SoundMST/Chime_D.wav,SoundMST/Baby_B.wav,DIFFERENT,,,,,,,,,
,,,,,,,,,,,,,,,,11,2022-02-07_11h09.34.050,Session1,2020.2.10,Win32,60,,,,,,,,,,,,,,,,,,,,,,,,,,,,,,,,,,,,,,,,,,,,,,,,,,,,,,,,4,1.769,0,24,24,27,1,SoundMST/Growl_H.wav,SoundMST/Growl_H.wav,SAME,,,,,,,,,
,,,,,,,,,,,,,,,,11,2022-02-07_11h09.34.050,Session1,2020.2.10,Win32,60,,,,,,,,,,,,,,,,,,,,,,,,,,,,,,,,,,,,,,,,,,,,,,,,,,,,,,,,1,2.102,0,25,25,78,1,SoundMST/CarStart_E.wav,SoundMST/Coin_E.wav,DIFFERENT,,,,,,,,,
,,,,,,,,,,,,,,,,11,2022-02-07_11h09.34.050,Session1,2020.2.10,Win32,60,,,,,,,,,,,,,,,,,,,,,,,,,,,,,,,,,,,,,,,,,,,,,,,,,,,,,,,,4,2.289,0,26,26,55,1,SoundMST/Siren_E.wav,SoundMST/Siren_E.wav,SAME,,,,,,,,,
,,,,,,,,,,,,,,,,11,2022-02-07_11h09.34.050,Session1,2020.2.10,Win32,60,,,,,,,,,,,,,,,,,,,,,,,,,,,,,,,,,,,,,,,,,,,,,,,,,,,,,,,,1,2.269,0,27,27,66,1,SoundMST/Crow_A.wav,SoundMST/Typing.wav,DIFFERENT,,,,,,,,,
,,,,,,,,,,,,,,,,11,2022-02-07_11h09.34.050,Session1,2020.2.10,Win32,60,,,,,,,,,,,,,,,,,,,,,,,,,,,,,,,,,,,,,,,,,,,,,,,,,,,,,,,,4,2.822,0,28,28,29,1,SoundMST/Cup.wav,SoundMST/Cup.wav,SAME,,,,,,,,,
,,,,,,,,,,,,,,,,11,2022-02-07_11h09.34.050,Session1,2020.2.10,Win32,60,,,,,,,,,,,,,,,,,,,,,,,,,,,,,,,,,,,,,,,,,,,,,,,,,,,,,,,,1,1.769,0,29,29,70,1,SoundMST/Camera.wav,SoundMST/Sleighbells_B.wav,DIFFERENT,,,,,,,,,
,,,,,,,,,,,,,,,,11,2022-02-07_11h09.34.050,Session1,2020.2.10,Win32,60,,,,,,,,,,,,,,,,,,,,,,,,,,,,,,,,,,,,,,,,,,,,,,,,,,,,,,,,3,4.925,0,30,30,10,1,SoundMST/Duck_B.wav,SoundMST/Duck_A.wav,SIMILAR,,,,,,,,,
,,,,,,,,,,,,,,,,11,2022-02-07_11h09.34.050,Session1,2020.2.10,Win32,60,,,,,,,,,,,,,,,,,,,,,,,,,,,,,,,,,,,,,,,,,,,,,,,,,,,,,,,,4,1.602,0,31,31,37,1,SoundMST/Bird_C.wav,SoundMST/Bird_C.wav,SAME,,,,,,,,,
,,,,,,,,,,,,,,,,11,2022-02-07_11h09.34.050,Session1,2020.2.10,Win32,60,,,,,,,,,,,,,,,,,,,,,,,,,,,,,,,,,,,,,,,,,,,,,,,,,,,,,,,,4,5.401,0,32,32,7,1,SoundMST/Coin_D.wav,SoundMST/Coin_E.wav,SIMILAR,,,,,,,,,
,,,,,,,,,,,,,,,,11,2022-02-07_11h09.34.050,Session1,2020.2.10,Win32,60,,,,,,,,,,,,,,,,,,,,,,,,,,,,,,,,,,,,,,,,,,,,,,,,,,,,,,,,3,2.471,0,33,33,12,1,SoundMST/Faucet_A.wav,SoundMST/Faucet_C.wav,SIMILAR,,,,,,,,,
,,,,,,,,,,,,,,,,11,2022-02-07_11h09.34.050,Session1,2020.2.10,Win32,60,,,,,,,,,,,,,,,,,,,,,,,,,,,,,,,,,,,,,,,,,,,,,,,,,,,,,,,,3,2.853,0,34,34,4,1,SoundMST/Chime_D.wav,SoundMST/Chime_A.wav,SIMILAR,,,,,,,,,
,,,,,,,,,,,,,,,,11,2022-02-07_11h09.34.050,Session1,2020.2.10,Win32,60,,,,,,,,,,,,,,,,,,,,,,,,,,,,,,,,,,,,,,,,,,,,,,,,,,,,,,,,1,1.938,0,35,35,77,1,SoundMST/Bubbles_A.wav,SoundMST/Duck_A.wav,DIFFERENT,,,,,,,,,
,,,,,,,,,,,,,,,,11,2022-02-07_11h09.34.050,Session1,2020.2.10,Win32,60,,,,,,,,,,,,,,,,,,,,,,,,,,,,,,,,,,,,,,,,,,,,,,,,,,,,,,,,1,1.719,0,36,36,68,1,SoundMST/Chicken_A.wav,SoundMST/Cello.wav,DIFFERENT,,,,,,,,,
,,,,,,,,,,,,,,,,11,2022-02-07_11h09.34.050,Session1,2020.2.10,Win32,60,,,,,,,,,,,,,,,,,,,,,,,,,,,,,,,,,,,,,,,,,,,,,,,,,,,,,,,,1,1.169,0,37,37,82,1,SoundMST/Coin_D.wav,SoundMST/Elephant_A.wav,DIFFERENT,,,,,,,,,
,,,,,,,,,,,,,,,,11,2022-02-07_11h09.34.050,Session1,2020.2.10,Win32,60,,,,,,,,,,,,,,,,,,,,,,,,,,,,,,,,,,,,,,,,,,,,,,,,,,,,,,,,1,1.569,0,38,38,76,1,SoundMST/Bird_C.wav,SoundMST/Chime_A.wav,DIFFERENT,,,,,,,,,
,,,,,,,,,,,,,,,,11,2022-02-07_11h09.34.050,Session1,2020.2.10,Win32,60,,,,,,,,,,,,,,,,,,,,,,,,,,,,,,,,,,,,,,,,,,,,,,,,,,,,,,,,3,5.408,0,39,39,18,1,SoundMST/Pour_F.wav,SoundMST/Pour_C.wav,SIMILAR,,,,,,,,,
,,,,,,,,,,,,,,,,11,2022-02-07_11h09.34.050,Session1,2020.2.10,Win32,60,,,,,,,,,,,,,,,,,,,,,,,,,,,,,,,,,,,,,,,,,,,,,,,,,,,,,,,,2,6.424,0,40,40,9,1,SoundMST/Dog_H.wav,SoundMST/Dog_I.wav,SIMILAR,,,,,,,,,
,,,,,,,,,,,,,,,,11,2022-02-07_11h09.34.050,Session1,2020.2.10,Win32,60,,,,,,,,,,,,,,,,,,,,,,,,,,,,,,,,,,,,,,,,,,,,,,,,,,,,,,,,4,1.603,0,41,41,57,1,SoundMST/Trumpet_B.wav,SoundMST/Trumpet_B.wav,SAME,,,,,,,,,
,,,,,,,,,,,,,,,,11,2022-02-07_11h09.34.050,Session1,2020.2.10,Win32,60,,,,,,,,,,,,,,,,,,,,,,,,,,,,,,,,,,,,,,,,,,,,,,,,,,,,,,,,1,1.736,0,42,42,75,1,SoundMST/Baby_C.wav,SoundMST/Dog_I.wav,DIFFERENT,,,,,,,,,
,,,,,,,,,,,,,,,,11,2022-02-07_11h09.34.050,Session1,2020.2.10,Win32,60,,,,,,,,,,,,,,,,,,,,,,,,,,,,,,,,,,,,,,,,,,,,,,,,,,,,,,,,4,2.089,0,43,43,56,1,SoundMST/Snore_C.wav,SoundMST/Snore_C.wav,SAME,,,,,,,,,
,,,,,,,,,,,,,,,,11,2022-02-07_11h09.34.050,Session1,2020.2.10,Win32,60,,,,,,,,,,,,,,,,,,,,,,,,,,,,,,,,,,,,,,,,,,,,,,,,,,,,,,,,3,2.641,0,44,44,23,1,SoundMST/Writing_A.wav,SoundMST/Writing_C.wav,SIMILAR,,,,,,,,,
,,,,,,,,,,,,,,,,11,2022-02-07_11h09.34.050,Session1,2020.2.10,Win32,60,,,,,,,,,,,,,,,,,,,,,,,,,,,,,,,,,,,,,,,,,,,,,,,,,,,,,,,,1,1.77,0,45,45,71,1,SoundMST/Sleighbells_B.wav,SoundMST/Thunder_A.wav,DIFFERENT,,,,,,,,,
,,,,,,,,,,,,,,,,11,2022-02-07_11h09.34.050,Session1,2020.2.10,Win32,60,,,,,,,,,,,,,,,,,,,,,,,,,,,,,,,,,,,,,,,,,,,,,,,,,,,,,,,,1,1.935,0,46,46,61,1,SoundMST/Cello.wav,SoundMST/Hammer_A.wav,DIFFERENT,,,,,,,,,
,,,,,,,,,,,,,,,,11,2022-02-07_11h09.34.050,Session1,2020.2.10,Win32,60,,,,,,,,,,,,,,,,,,,,,,,,,,,,,,,,,,,,,,,,,,,,,,,,,,,,,,,,3,5.053,0,47,47,6,1,SoundMST/Clap_A.wav,SoundMST/Clap_D.wav,SIMILAR,,,,,,,,,
,,,,,,,,,,,,,,,,11,2022-02-07_11h09.34.050,Session1,2020.2.10,Win32,60,,,,,,,,,,,,,,,,,,,,,,,,,,,,,,,,,,,,,,,,,,,,,,,,,,,,,,,,3,4.259,0,48,48,11,1,SoundMST/Elephant_C.wav,SoundMST/Elephant_A.wav,SIMILAR,,,,,,,,,
,,,,,,,,,,,,,,,,11,2022-02-07_11h09.34.050,Session1,2020.2.10,Win32,60,,,,,,,,,,,,,,,,,,,,,,,,,,,,,,,,,,,,,,,,,,,,,,,,,,,,,,,,1,1.837,0,49,49,67,1,SoundMST/Cuckoo_A.wav,SoundMST/Mosquito_B.wav,DIFFERENT,,,,,,,,,
,,,,,,,,,,,,,,,,11,2022-02-07_11h09.34.050,Session1,2020.2.10,Win32,60,,,,,,,,,,,,,,,,,,,,,,,,,,,,,,,,,,,,,,,,,,,,,,,,,,,,,,,,1,2.17,0,50,50,81,1,SoundMST/Clap_A.wav,SoundMST/Bubbles_B.wav,DIFFERENT,,,,,,,,,
,,,,,,,,,,,,,,,,11,2022-02-07_11h09.34.050,Session1,2020.2.10,Win32,60,,,,,,,,,,,,,,,,,,,,,,,,,,,,,,,,,,,,,,,,,,,,,,,,,,,,,,,,1,2.218,0,51,51,74,1,SoundMST/Bullfrog.wav,SoundMST/Chicken_A.wav,DIFFERENT,,,,,,,,,
,,,,,,,,,,,,,,,,11,2022-02-07_11h09.34.050,Session1,2020.2.10,Win32,60,,,,,,,,,,,,,,,,,,,,,,,,,,,,,,,,,,,,,,,,,,,,,,,,,,,,,,,,4,2.024,0,52,52,34,1,SoundMST/DialTone.wav,SoundMST/DialTone.wav,SAME,,,,,,,,,
,,,,,,,,,,,,,,,,11,2022-02-07_11h09.34.050,Session1,2020.2.10,Win32,60,,,,,,,,,,,,,,,,,,,,,,,,,,,,,,,,,,,,,,,,,,,,,,,,,,,,,,,,4,1.87,0,53,53,31,1,SoundMST/Guitar_B.wav,SoundMST/Guitar_B.wav,SAME,,,,,,,,,
,,,,,,,,,,,,,,,,11,2022-02-07_11h09.34.050,Session1,2020.2.10,Win32,60,,,,,,,,,,,,,,,,,,,,,,,,,,,,,,,,,,,,,,,,,,,,,,,,,,,,,,,,4,2.935,0,54,54,41,1,SoundMST/Chomp_A.wav,SoundMST/Chomp_A.wav,SAME,,,,,,,,,
,,,,,,,,,,,,,,,,11,2022-02-07_11h09.34.050,Session1,2020.2.10,Win32,60,,,,,,,,,,,,,,,,,,,,,,,,,,,,,,,,,,,,,,,,,,,,,,,,,,,,,,,,3,2.887,0,55,55,5,1,SoundMST/Chomp_A.wav,SoundMST/Chomp_C.wav,SIMILAR,,,,,,,,,
,,,,,,,,,,,,,,,,11,2022-02-07_11h09.34.050,Session1,2020.2.10,Win32,60,,,,,,,,,,,,,,,,,,,,,,,,,,,,,,,,,,,,,,,,,,,,,,,,,,,,,,,,4,1.87,0,56,56,35,1,SoundMST/Goat_C.wav,SoundMST/Goat_C.wav,SAME,,,,,,,,,
,,,,,,,,,,,,,,,,11,2022-02-07_11h09.34.050,Session1,2020.2.10,Win32,60,,,,,,,,,,,,,,,,,,,,,,,,,,,,,,,,,,,,,,,,,,,,,,,,,,,,,,,,4,1.803,0,57,57,32,1,SoundMST/Cow.wav,SoundMST/Cow.wav,SAME,,,,,,,,,
,,,,,,,,,,,,,,,,11,2022-02-07_11h09.34.050,Session1,2020.2.10,Win32,60,,,,,,,,,,,,,,,,,,,,,,,,,,,,,,,,,,,,,,,,,,,,,,,,,,,,,,,,4,1.95,0,58,58,38,1,SoundMST/Bubbles_A.wav,SoundMST/Bubbles_A.wav,SAME,,,,,,,,,
,,,,,,,,,,,,,,,,11,2022-02-07_11h09.34.050,Session1,2020.2.10,Win32,60,,,,,,,,,,,,,,,,,,,,,,,,,,,,,,,,,,,,,,,,,,,,,,,,,,,,,,,,3,3.166,0,59,59,22,1,SoundMST/Whistle_B.wav,SoundMST/Whistle_C.wav,SIMILAR,,,,,,,,,
,,,,,,,,,,,,,,,,11,2022-02-07_11h09.34.050,Session1,2020.2.10,Win32,60,,,,,,,,,,,,,,,,,,,,,,,,,,,,,,,,,,,,,,,,,,,,,,,,,,,,,,,,4,7.652,0,60,60,48,1,SoundMST/Faucet_A.wav,SoundMST/Faucet_A.wav,SAME,,,,,,,,,
,,,,,,,,,,,,,,,,11,2022-02-07_11h09.34.050,Session1,2020.2.10,Win32,60,,,,,,,,,,,,,,,,,,,,,,,,,,,,,,,,,,,,,,,,,,,,,,,,,,,,,,,,4,1.635,0,61,61,51,1,SoundMST/ManWhistle.wav,SoundMST/ManWhistle.wav,SAME,,,,,,,,,
,,,,,,,,,,,,,,,,11,2022-02-07_11h09.34.050,Session1,2020.2.10,Win32,60,,,,,,,,,,,,,,,,,,,,,,,,,,,,,,,,,,,,,,,,,,,,,,,,,,,,,,,,1,3.122,0,62,62,63,1,SoundMST/Mosquito_B.wav,SoundMST/Camera.wav,DIFFERENT,,,,,,,,,
,,,,,,,,,,,,,,,,11,2022-02-07_11h09.34.050,Session1,2020.2.10,Win32,60,,,,,,,,,,,,,,,,,,,,,,,,,,,,,,,,,,,,,,,,,,,,,,,,,,,,,,,,3,6.54,0,63,63,0,1,SoundMST/Baby_C.wav,SoundMST/Baby_B.wav,SIMILAR,,,,,,,,,
,,,,,,,,,,,,,,,,11,2022-02-07_11h09.34.050,Session1,2020.2.10,Win32,60,,,,,,,,,,,,,,,,,,,,,,,,,,,,,,,,,,,,,,,,,,,,,,,,,,,,,,,,1,2.253,0,64,64,62,1,SoundMST/Hammer_A.wav,SoundMST/Crow_A.wav,DIFFERENT,,,,,,,,,
,,,,,,,,,,,,,,,,11,2022-02-07_11h09.34.050,Session1,2020.2.10,Win32,60,,,,,,,,,,,,,,,,,,,,,,,,,,,,,,,,,,,,,,,,,,,,,,,,,,,,,,,,1,1.869,0,65,65,59,1,SoundMST/Thunder_A.wav,SoundMST/Cuckoo_A.wav,DIFFERENT,,,,,,,,,
,,,,,,,,,,,,,,,,11,2022-02-07_11h09.34.050,Session1,2020.2.10,Win32,60,,,,,,,,,,,,,,,,,,,,,,,,,,,,,,,,,,,,,,,,,,,,,,,,,,,,,,,,3,5.168,0,66,66,8,1,SoundMST/Cough_I.wav,SoundMST/Cough_J.wav,SIMILAR,,,,,,,,,
,,,,,,,,,,,,,,,,11,2022-02-07_11h09.34.050,Session1,2020.2.10,Win32,60,,,,,,,,,,,,,,,,,,,,,,,,,,,,,,,,,,,,,,,,,,,,,,,,,,,,,,,,1,2.234,0,67,67,80,1,SoundMST/Chomp_A.wav,SoundMST/Bird_A.wav,DIFFERENT,,,,,,,,,
,,,,,,,,,,,,,,,,11,2022-02-07_11h09.34.050,Session1,2020.2.10,Win32,60,,,,,,,,,,,,,,,,,,,,,,,,,,,,,,,,,,,,,,,,,,,,,,,,,,,,,,,,4,2.319,0,68,68,54,1,SoundMST/Pour_F.wav,SoundMST/Pour_F.wav,SAME,,,,,,,,,
,,,,,,,,,,,,,,,,11,2022-02-07_11h09.34.050,Session1,2020.2.10,Win32,60,,,,,,,,,,,,,,,,,,,,,,,,,,,,,,,,,,,,,,,,,,,,,,,,,,,,,,,,4,1.702,0,69,69,46,1,SoundMST/Duck_B.wav,SoundMST/Duck_B.wav,SAME,,,,,,,,,
,,,,,,,,,,,,,,,,11,2022-02-07_11h09.34.050,Session1,2020.2.10,Win32,60,,,,,,,,,,,,,,,,,,,,,,,,,,,,,,,,,,,,,,,,,,,,,,,,,,,,,,,,3,6.222,0,70,70,21,1,SoundMST/Trumpet_B.wav,SoundMST/Trumpet_C.wav,SIMILAR,,,,,,,,,
,,,,,,,,,,,,,,,,11,2022-02-07_11h09.34.050,Session1,2020.2.10,Win32,60,,,,,,,,,,,,,,,,,,,,,,,,,,,,,,,,,,,,,,,,,,,,,,,,,,,,,,,,1,1.886,0,71,71,64,1,SoundMST/Horse.wav,SoundMST/Bowlingpins.wav,DIFFERENT,,,,,,,,,
,,,,,,,,,,,,,,,,11,2022-02-07_11h09.34.050,Session1,2020.2.10,Win32,60,,,,,,,,,,,,,,,,,,,,,,,,,,,,,,,,,,,,,,,,,,,,,,,,,,,,,,,,1,1.704,0,72,72,65,1,SoundMST/Bowlingpins.wav,SoundMST/Steam.wav,DIFFERENT,,,,,,,,,
,,,,,,,,,,,,,,,,11,2022-02-07_11h09.34.050,Session1,2020.2.10,Win32,60,,,,,,,,,,,,,,,,,,,,,,,,,,,,,,,,,,,,,,,,,,,,,,,,,,,,,,,,2,6.47,0,73,73,13,1,SoundMST/Footsteps_C.wav,SoundMST/Footsteps_F.wav,SIMILAR,,,,,,,,,
,,,,,,,,,,,,,,,,11,2022-02-07_11h09.34.050,Session1,2020.2.10,Win32,60,,,,,,,,,,,,,,,,,,,,,,,,,,,,,,,,,,,,,,,,,,,,,,,,,,,,,,,,4,1.868,0,74,74,47,1,SoundMST/Elephant_C.wav,SoundMST/Elephant_C.wav,SAME,,,,,,,,,
,,,,,,,,,,,,,,,,11,2022-02-07_11h09.34.050,Session1,2020.2.10,Win32,60,,,,,,,,,,,,,,,,,,,,,,,,,,,,,,,,,,,,,,,,,,,,,,,,,,,,,,,,4,1.953,0,75,75,24,1,SoundMST/Wind_B.wav,SoundMST/Wind_B.wav,SAME,,,,,,,,,
,,,,,,,,,,,,,,,,11,2022-02-07_11h09.34.050,Session1,2020.2.10,Win32,60,,,,,,,,,,,,,,,,,,,,,,,,,,,,,,,,,,,,,,,,,,,,,,,,,,,,,,,,2,7.933,0,76,76,17,1,SoundMST/Piano_D.wav,SoundMST/Piano_C.wav,SIMILAR,,,,,,,,,
,,,,,,,,,,,,,,,,11,2022-02-07_11h09.34.050,Session1,2020.2.10,Win32,60,,,,,,,,,,,,,,,,,,,,,,,,,,,,,,,,,,,,,,,,,,,,,,,,,,,,,,,,4,2.04,0,77,77,52,1,SoundMST/Phone_F.wav,SoundMST/Phone_F.wav,SAME,,,,,,,,,
,,,,,,,,,,,,,,,,11,2022-02-07_11h09.34.050,Session1,2020.2.10,Win32,60,,,,,,,,,,,,,,,,,,,,,,,,,,,,,,,,,,,,,,,,,,,,,,,,,,,,,,,,4,2.057,0,78,78,36,1,SoundMST/Baby_C.wav,SoundMST/Baby_C.wav,SAME,,,,,,,,,
,,,,,,,,,,,,,,,,11,2022-02-07_11h09.34.050,Session1,2020.2.10,Win32,60,,,,,,,,,,,,,,,,,,,,,,,,,,,,,,,,,,,,,,,,,,,,,,,,,,,,,,,,4,1.569,0,79,79,30,1,SoundMST/PaperRip.wav,SoundMST/PaperRip.wav,SAME,,,,,,,,,
,,,,,,,,,,,,,,,,11,2022-02-07_11h09.34.050,Session1,2020.2.10,Win32,60,,,,,,,,,,,,,,,,,,,,,,,,,,,,,,,,,,,,,,,,,,,,,,,,,,,,,,,,4,1.918,0,80,80,49,1,SoundMST/Footsteps_C.wav,SoundMST/Footsteps_C.wav,SAME,,,,,,,,,
,,,,,,,,,,,,,,,,11,2022-02-07_11h09.34.050,Session1,2020.2.10,Win32,60,,,,,,,,,,,,,,,,,,,,,,,,,,,,,,,,,,,,,,,,,,,,,,,,,,,,,,,,3,8.264,0,81,81,14,1,SoundMST/Laugh_A.wav,SoundMST/Laugh_D.wav,SIMILAR,,,,,,,,,
,,,,,,,,,,,,,,,,11,2022-02-07_11h09.34.050,Session1,2020.2.10,Win32,60,,,,,,,,,,,,,,,,,,,,,,,,,,,,,,,,,,,,,,,,,,,,,,,,,,,,,,,,4,2.168,0,82,82,42,1,SoundMST/Clap_A.wav,SoundMST/Clap_A.wav,SAME,,,,,,,,,
<<<<<<< HEAD
,,,,,,,,,,,,,,,,11,2022-02-07_11h09.34.050,Session1,2020.2.10,Win32,60,,,,,,,,,,,,,,,,,,,,,space,103.97,,,,,,,,,,,,,,,,,,,,,,,,,,,,,,,,,,,,,,,,,SoundMST/Mosquito_B.wav,NEW,farting,space,16.264,farting,16.025,0,0,0,17,1
,,,,,,,,,,,,,,,,11,2022-02-07_11h09.34.050,Session1,2020.2.10,Win32,60,,,,,,,,,,,,,,,,,,,,,,,,,,,,,,,,,,,,,,,,,,,,,,,,,,,,,,,,,,,,,,,SoundMST/Typing.wav,NEW,typing,,,typing,6.432,0,1,1,47,1
,,,,,,,,,,,,,,,,11,2022-02-07_11h09.34.050,Session1,2020.2.10,Win32,60,,,,,,,,,,,,,,,,,,,,,,,,,,,,,,,,,,,,,,,,,,,,,,,,,,,,,,,,,,,,,,,SoundMST/Elephant_C.wav,NEW,elephant,,,elephant,5.182,0,2,2,3,1
,,,,,,,,,,,,,,,,11,2022-02-07_11h09.34.050,Session1,2020.2.10,Win32,60,,,,,,,,,,,,,,,,,,,,,,,,,,,,,,,,,,,,,,,,,,,,,,,,,,,,,,,,,,,,,,,SoundMST/Growl_H.wav,NEW,lion,,,lion,5.482,0,3,3,45,1
,,,,,,,,,,,,,,,,11,2022-02-07_11h09.34.050,Session1,2020.2.10,Win32,60,,,,,,,,,,,,,,,,,,,,,,,,,,,,,,,,,,,,,,,,,,,,,,,,,,,,,,,,,,,,,,,SoundMST/Pour_C.wav,SIMILAR,pouring water into glass,,,pouring water into glass,7.634,0,4,4,79,1
,,,,,,,,,,,,,,,,11,2022-02-07_11h09.34.050,Session1,2020.2.10,Win32,60,,,,,,,,,,,,,,,,,,,,,,,,,,,,,,,,,,,,,,,,,,,,,,,,,,,,,,,,,,,,,,,SoundMST/Phone_F.wav,NEW,telephone,,,telephone,4.95,0,5,5,15,1
,,,,,,,,,,,,,,,,11,2022-02-07_11h09.34.050,Session1,2020.2.10,Win32,60,,,,,,,,,,,,,,,,,,,,,,,,,,,,,,,,,,,,,,,,,,,,,,,,,,,,,,,,,,,,,,,SoundMST/Writing_A.wav,NEW,writing with chalk on a board,,,writing with chalk on a board,7.252,0,6,6,1,1
,,,,,,,,,,,,,,,,11,2022-02-07_11h09.34.050,Session1,2020.2.10,Win32,60,,,,,,,,,,,,,,,,,,,,,,,,,,,,,,,,,,,,,,,,,,,,,,,,,,,,,,,,,,,,,,,SoundMST/PaperRip.wav,NEW,ripping paper,,,ripping paper,9.736,0,7,7,56,1
,,,,,,,,,,,,,,,,11,2022-02-07_11h09.34.050,Session1,2020.2.10,Win32,60,,,,,,,,,,,,,,,,,,,,,,,,,,,,,,,,,,,,,,,,,,,,,,,,,,,,,,,,,,,,,,,SoundMST/Phone_E.wav,SIMILAR,telephone,,,telephone,5.021,0,8,8,70,1
,,,,,,,,,,,,,,,,11,2022-02-07_11h09.34.050,Session1,2020.2.10,Win32,60,,,,,,,,,,,,,,,,,,,,,,,,,,,,,,,,,,,,,,,,,,,,,,,,,,,,,,,,,,,,,,,SoundMST/Dog_I.wav,SIMILAR,dog barking,,,dog barking,5.351,0,9,9,77,1
,,,,,,,,,,,,,,,,11,2022-02-07_11h09.34.050,Session1,2020.2.10,Win32,60,,,,,,,,,,,,,,,,,,,,,,,,,,,,,,,,,,,,,,,,,,,,,,,,,,,,,,,,,,,,,,,SoundMST/Hammer_A.wav,NEW,tapping on something,,,tapping on something,9.798,0,10,10,32,1
,,,,,,,,,,,,,,,,11,2022-02-07_11h09.34.050,Session1,2020.2.10,Win32,60,,,,,,,,,,,,,,,,,,,,,,,,,,,,,,,,,,,,,,,,,,,,,,,,,,,,,,,,,,,,,,,SoundMST/Guitar_B.wav,NEW,guitar,,,guitar,4.816,0,11,11,24,1
,,,,,,,,,,,,,,,,11,2022-02-07_11h09.34.050,Session1,2020.2.10,Win32,60,,,,,,,,,,,,,,,,,,,,,,,,,,,,,,,,,,,,,,,,,,,,,,,,,,,,,,,,,,,,,,,SoundMST/Fireworks.wav,NEW,flock of birds,,,flock of birds,17.578,0,12,12,52,1
,,,,,,,,,,,,,,,,11,2022-02-07_11h09.34.050,Session1,2020.2.10,Win32,60,,,,,,,,,,,,,,,,,,,,,,,,,,,,,,,,,,,,,,,,,,,,,,,,,,,,,,,,,,,,,,,SoundMST/Trumpet_B.wav,NEW,trumpet,,,trumpet,4.867,0,13,13,5,1
,,,,,,,,,,,,,,,,11,2022-02-07_11h09.34.050,Session1,2020.2.10,Win32,60,,,,,,,,,,,,,,,,,,,,,,,,,,,,,,,,,,,,,,,,,,,,,,,,,,,,,,,,,,,,,,,SoundMST/Heartbeat.wav,NEW,heartbeat,,,heartbeat,6.499,0,14,14,6,1
,,,,,,,,,,,,,,,,11,2022-02-07_11h09.34.050,Session1,2020.2.10,Win32,60,,,,,,,,,,,,,,,,,,,,,,,,,,,,,,,,,,,,,,,,,,,,,,,,,,,,,,,,,,,,,,,SoundMST/Bubbles_B.wav,SIMILAR,water bubbling,,,water bubbling,7.52,0,15,15,87,1
,,,,,,,,,,,,,,,,11,2022-02-07_11h09.34.050,Session1,2020.2.10,Win32,60,,,,,,,,,,,,,,,,,,,,,,,,,,,,,,,,,,,,,,,,,,,,,,,,,,,,,,,,,,,,,,,SoundMST/Cup.wav,NEW,dropping ice cube in glass,,,dropping ice cube in glass,14.046,0,16,16,42,1
,,,,,,,,,,,,,,,,11,2022-02-07_11h09.34.050,Session1,2020.2.10,Win32,60,,,,,,,,,,,,,,,,,,,,,,,,,,,,,,,,,,,,,,,,,,,,,,,,,,,,,,,,,,,,,,,SoundMST/Writing_C.wav,SIMILAR,writing with chalk on a board,,,writing with chalk on a board,6.018,0,17,17,64,1
,,,,,,,,,,,,,,,,11,2022-02-07_11h09.34.050,Session1,2020.2.10,Win32,60,,,,,,,,,,,,,,,,,,,,,,,,,,,,,,,,,,,,,,,,,,,,,,,,,,,,,,,,,,,,,,,SoundMST/Trumpet_C.wav,SIMILAR,trumpet,,,trumpet,7.437,0,18,18,66,1
,,,,,,,,,,,,,,,,11,2022-02-07_11h09.34.050,Session1,2020.2.10,Win32,60,,,,,,,,,,,,,,,,,,,,,,,,,,,,,,,,,,,,,,,,,,,,,,,,,,,,,,,,,,,,,,,SoundMST/Sneeze_B.wav,NEW,sneezing,,,sneezing,4.302,0,19,19,43,1
,,,,,,,,,,,,,,,,11,2022-02-07_11h09.34.050,Session1,2020.2.10,Win32,60,,,,,,,,,,,,,,,,,,,,,,,,,,,,,,,,,,,,,,,,,,,,,,,,,,,,,,,,,,,,,,,SoundMST/Duck_A.wav,SIMILAR,duck,,,duck,4.428,0,20,20,69,1
,,,,,,,,,,,,,,,,11,2022-02-07_11h09.34.050,Session1,2020.2.10,Win32,60,,,,,,,,,,,,,,,,,,,,,,,,,,,,,,,,,,,,,,,,,,,,,,,,,,,,,,,,,,,,,,,SoundMST/Goat_C.wav,NEW,sheep,,,sheep,4.765,0,21,21,12,1
,,,,,,,,,,,,,,,,11,2022-02-07_11h09.34.050,Session1,2020.2.10,Win32,60,,,,,,,,,,,,,,,,,,,,,,,,,,,,,,,,,,,,,,,,,,,,,,,,,,,,,,,,,,,,,,,SoundMST/Airhorn.wav,NEW,airhorn,,,airhorn,8.305,0,22,22,27,1
,,,,,,,,,,,,,,,,11,2022-02-07_11h09.34.050,Session1,2020.2.10,Win32,60,,,,,,,,,,,,,,,,,,,,,,,,,,,,,,,,,,,,,,,,,,,,,,,,,,,,,,,,,,,,,,,SoundMST/Cough_J.wav,SIMILAR,coughing,,,coughing,5.14,0,23,23,76,1
,,,,,,,,,,,,,,,,11,2022-02-07_11h09.34.050,Session1,2020.2.10,Win32,60,,,,,,,,,,,,,,,,,,,,,,,,,,,,,,,,,,,,,,,,,,,,,,,,,,,,,,,,,,,,,,,SoundMST/Footsteps_F.wav,SIMILAR,someone walking,,,someone walking,12.701,0,24,24,80,1
,,,,,,,,,,,,,,,,11,2022-02-07_11h09.34.050,Session1,2020.2.10,Win32,60,,,,,,,,,,,,,,,,,,,,,,,,,,,,,,,,,,,,,,,,,,,,,,,,,,,,,,,,,,,,,,,SoundMST/Snore_C.wav,NEW,snoring,,,snoring,7.015,0,25,25,16,1
,,,,,,,,,,,,,,,,11,2022-02-07_11h09.34.050,Session1,2020.2.10,Win32,60,,,,,,,,,,,,,,,,,,,,,,,,,,,,,,,,,,,,,,,,,,,,,,,,,,,,,,,,,,,,,,,SoundMST/Faucet_C.wav,SIMILAR,running water in a sink,,,running water in a sink,8.25,0,26,26,73,1
,,,,,,,,,,,,,,,,11,2022-02-07_11h09.34.050,Session1,2020.2.10,Win32,60,,,,,,,,,,,,,,,,,,,,,,,,,,,,,,,,,,,,,,,,,,,,,,,,,,,,,,,,,,,,,,,SoundMST/Bird_C.wav,NEW,bird,,,bird,5.831,0,27,27,22,1
,,,,,,,,,,,,,,,,11,2022-02-07_11h09.34.050,Session1,2020.2.10,Win32,60,,,,,,,,,,,,,,,,,,,,,,,,,,,,,,,,,,,,,,,,,,,,,,,,,,,,,,,,,,,,,,,SoundMST/Whistle_B.wav,NEW,blowing a whistle,,,blowing a whistle,6.814,0,28,28,51,1
,,,,,,,,,,,,,,,,11,2022-02-07_11h09.34.050,Session1,2020.2.10,Win32,60,,,,,,,,,,,,,,,,,,,,,,,,,,,,,,,,,,,,,,,,,,,,,,,,,,,,,,,,,,,,,,,SoundMST/Wind_B.wav,NEW,wind howling,,,wind howling,6.532,0,29,29,50,1
,,,,,,,,,,,,,,,,11,2022-02-07_11h09.34.050,Session1,2020.2.10,Win32,60,,,,,,,,,,,,,,,,,,,,,,,,,,,,,,,,,,,,,,,,,,,,,,,,,,,,,,,,,,,,,,,SoundMST/Chime_D.wav,NEW,church bell,,,church bell,6.284,0,30,30,20,1
,,,,,,,,,,,,,,,,11,2022-02-07_11h09.34.050,Session1,2020.2.10,Win32,60,,,,,,,,,,,,,,,,,,,,,,,,,,,,,,,,,,,,,,,,,,,,,,,,,,,,,,,,,,,,,,,SoundMST/Faucet_A.wav,NEW,water running,,,water running,6.186,0,31,31,21,1
,,,,,,,,,,,,,,,,11,2022-02-07_11h09.34.050,Session1,2020.2.10,Win32,60,,,,,,,,,,,,,,,,,,,,,,,,,,,,,,,,,,,,,,,,,,,,,,,,,,,,,,,,,,,,,,,SoundMST/Chomp_C.wav,SIMILAR,crunching a carrot,,,crunching a carrot,8.816,0,32,32,84,1
,,,,,,,,,,,,,,,,11,2022-02-07_11h09.34.050,Session1,2020.2.10,Win32,60,,,,,,,,,,,,,,,,,,,,,,,,,,,,,,,,,,,,,,,,,,,,,,,,,,,,,,,,,,,,,,,SoundMST/Chicken_A.wav,NEW,chicken,,,chicken,5.399,0,33,33,11,1
,,,,,,,,,,,,,,,,11,2022-02-07_11h09.34.050,Session1,2020.2.10,Win32,60,,,,,,,,,,,,,,,,,,,,,,,,,,,,,,,,,,,,,,,,,,,,,,,,,,,,,,,,,,,,,,,SoundMST/ManWhistle_E.wav,SIMILAR,whistling,,,whistling,5.215,0,34,34,85,1
,,,,,,,,,,,,,,,,11,2022-02-07_11h09.34.050,Session1,2020.2.10,Win32,60,,,,,,,,,,,,,,,,,,,,,,,,,,,,,,,,,,,,,,,,,,,,,,,,,,,,,,,,,,,,,,,SoundMST/CarStart_E.wav,NEW,car starting,,,car starting,5.083,0,35,35,2,1
,,,,,,,,,,,,,,,,11,2022-02-07_11h09.34.050,Session1,2020.2.10,Win32,60,,,,,,,,,,,,,,,,,,,,,,,,,,,,,,,,,,,,,,,,,,,,,,,,,,,,,,,,,,,,,,,SoundMST/Baby_B.wav,SIMILAR,baby crying,,,baby crying,7.132,0,36,36,74,1
,,,,,,,,,,,,,,,,11,2022-02-07_11h09.34.050,Session1,2020.2.10,Win32,60,,,,,,,,,,,,,,,,,,,,,,,,,,,,,,,,,,,,,,,,,,,,,,,,,,,,,,,,,,,,,,,SoundMST/Elephant_A.wav,SIMILAR,elephant,,,elephant,5.52,0,37,37,68,1
,,,,,,,,,,,,,,,,11,2022-02-07_11h09.34.050,Session1,2020.2.10,Win32,60,,,,,,,,,,,,,,,,,,,,,,,,,,,,,,,,,,,,,,,,,,,,,,,,,,,,,,,,,,,,,,,SoundMST/Chime_A.wav,SIMILAR,church bell,,,church bell,5.897,0,38,38,72,1
,,,,,,,,,,,,,,,,11,2022-02-07_11h09.34.050,Session1,2020.2.10,Win32,60,,,,,,,,,,,,,,,,,,,,,,,,,,,,,,,,,,,,,,,,,,,,,,,,,,,,,,,,,,,,,,,SoundMST/Howl.wav,NEW,dog howling,,,dog howling,9.588,0,39,39,33,1
,,,,,,,,,,,,,,,,11,2022-02-07_11h09.34.050,Session1,2020.2.10,Win32,60,,,,,,,,,,,,,,,,,,,,,,,,,,,,,,,,,,,,,,,,,,,,,,,,,,,,,,,,,,,,,,,SoundMST/Pour_F.wav,NEW,pouring water into glass,,,pouring water into glass,9,0,40,40,37,1
,,,,,,,,,,,,,,,,11,2022-02-07_11h09.34.050,Session1,2020.2.10,Win32,60,,,,,,,,,,,,,,,,,,,,,,,,,,,,,,,,,,,,,,,,,,,,,,,,,,,,,,,,,,,,,,,SoundMST/Footsteps_C.wav,NEW,walking upstaires,,,walking upstaires,7.317,0,41,41,41,1
,,,,,,,,,,,,,,,,11,2022-02-07_11h09.34.050,Session1,2020.2.10,Win32,60,,,,,,,,,,,,,,,,,,,,,,,,,,,,,,,,,,,,,,,,,,,,,,,,,,,,,,,,,,,,,,,SoundMST/Steam.wav,NEW,train whistle,,,train whistle,5.484,0,42,42,9,1
,,,,,,,,,,,,,,,,11,2022-02-07_11h09.34.050,Session1,2020.2.10,Win32,60,,,,,,,,,,,,,,,,,,,,,,,,,,,,,,,,,,,,,,,,,,,,,,,,,,,,,,,,,,,,,,,SoundMST/Cello.wav,NEW,cello,,,cello,10.099,0,43,43,8,1
,,,,,,,,,,,,,,,,11,2022-02-07_11h09.34.050,Session1,2020.2.10,Win32,60,,,,,,,,,,,,,,,,,,,,,,,,,,,,,,,,,,,,,,,,,,,,,,,,,,,,,,,,,,,,,,,SoundMST/IceDrop.wav,NEW,putting ice cubes into glass,,,putting ice cubes into glass,7.715,0,44,44,55,1
,,,,,,,,,,,,,,,,11,2022-02-07_11h09.34.050,Session1,2020.2.10,Win32,60,,,,,,,,,,,,,,,,,,,,,,,,,,,,,,,,,,,,,,,,,,,,,,,,,,,,,,,,,,,,,,,SoundMST/Laugh_A.wav,NEW,people laughing,,,people laughing,5.749,0,45,45,28,1
,,,,,,,,,,,,,,,,11,2022-02-07_11h09.34.050,Session1,2020.2.10,Win32,60,,,,,,,,,,,,,,,,,,,,,,,,,,,,,,,,,,,,,,,,,,,,,,,,,,,,,,,,,,,,,,,SoundMST/Whistle_C.wav,SIMILAR,blowing a whistle,,,blowing a whistle,4.966,0,46,46,82,1
,,,,,,,,,,,,,,,,11,2022-02-07_11h09.34.050,Session1,2020.2.10,Win32,60,,,,,,,,,,,,,,,,,,,,,,,,,,,,,,,,,,,,,,,,,,,,,,,,,,,,,,,,,,,,,,,SoundMST/Buzz.wav,NEW,cellphone vibrating,,,cellphone vibrating,8.865,0,47,47,0,1
,,,,,,,,,,,,,,,,11,2022-02-07_11h09.34.050,Session1,2020.2.10,Win32,60,,,,,,,,,,,,,,,,,,,,,,,,,,,,,,,,,,,,,,,,,,,,,,,,,,,,,,,,,,,,,,,SoundMST/Cow.wav,NEW,cow,,,cow,4.166,0,48,48,44,1
,,,,,,,,,,,,,,,,11,2022-02-07_11h09.34.050,Session1,2020.2.10,Win32,60,,,,,,,,,,,,,,,,,,,,,,,,,,,,,,,,,,,,,,,,,,,,,,,,,,,,,,,,,,,,,,,SoundMST/Bagpipe.wav,NEW,bagpipe,,,bagpipe,4.621,0,49,49,53,1
,,,,,,,,,,,,,,,,11,2022-02-07_11h09.34.050,Session1,2020.2.10,Win32,60,,,,,,,,,,,,,,,,,,,,,,,,,,,,,,,,,,,,,,,,,,,,,,,,,,,,,,,,,,,,,,,SoundMST/Donkey.wav,NEW,donkey,,,donkey,4.822,0,50,50,30,1
,,,,,,,,,,,,,,,,11,2022-02-07_11h09.34.050,Session1,2020.2.10,Win32,60,,,,,,,,,,,,,,,,,,,,,,,,,,,,,,,,,,,,,,,,,,,,,,,,,,,,,,,,,,,,,,,SoundMST/Toilet_B.wav,NEW,flushing a toilet,,,flushing a toilet,5.567,0,51,51,40,1
,,,,,,,,,,,,,,,,11,2022-02-07_11h09.34.050,Session1,2020.2.10,Win32,60,,,,,,,,,,,,,,,,,,,,,,,,,,,,,,,,,,,,,,,,,,,,,,,,,,,,,,,,,,,,,,,SoundMST/Printer.wav,NEW,printer,,,printer,10.9,0,52,52,34,1
,,,,,,,,,,,,,,,,11,2022-02-07_11h09.34.050,Session1,2020.2.10,Win32,60,,,,,,,,,,,,,,,,,,,,,,,,,,,,,,,,,,,,,,,,,,,,,,,,,,,,,,,,,,,,,,,SoundMST/Duck_B.wav,NEW,duck,,,duck,6.948,0,53,53,13,1
,,,,,,,,,,,,,,,,11,2022-02-07_11h09.34.050,Session1,2020.2.10,Win32,60,,,,,,,,,,,,,,,,,,,,,,,,,,,,,,,,,,,,,,,,,,,,,,,,,,,,,,,,,,,,,,,SoundMST/Cough_I.wav,NEW,coughing,,,coughing,4.598,0,54,54,18,1
,,,,,,,,,,,,,,,,11,2022-02-07_11h09.34.050,Session1,2020.2.10,Win32,60,,,,,,,,,,,,,,,,,,,,,,,,,,,,,,,,,,,,,,,,,,,,,,,,,,,,,,,,,,,,,,,SoundMST/Slurp.wav,NEW,slurping water,,,slurping water,8.817,0,55,55,31,1
,,,,,,,,,,,,,,,,11,2022-02-07_11h09.34.050,Session1,2020.2.10,Win32,60,,,,,,,,,,,,,,,,,,,,,,,,,,,,,,,,,,,,,,,,,,,,,,,,,,,,,,,,,,,,,,,SoundMST/Piano_C.wav,SIMILAR,playing the piano,,,playing the piano,6.638,0,56,56,67,1
,,,,,,,,,,,,,,,,11,2022-02-07_11h09.34.050,Session1,2020.2.10,Win32,60,,,,,,,,,,,,,,,,,,,,,,,,,,,,,,,,,,,,,,,,,,,,,,,,,,,,,,,,,,,,,,,SoundMST/Cat_A.wav,NEW,cat,,,cat,4.616,0,57,57,26,1
,,,,,,,,,,,,,,,,11,2022-02-07_11h09.34.050,Session1,2020.2.10,Win32,60,,,,,,,,,,,,,,,,,,,,,,,,,,,,,,,,,,,,,,,,,,,,,,,,,,,,,,,,,,,,,,,SoundMST/Cuckoo_A.wav,NEW,cuckoo clock,,,cuckoo clock,4.65,0,58,58,10,1
,,,,,,,,,,,,,,,,11,2022-02-07_11h09.34.050,Session1,2020.2.10,Win32,60,,,,,,,,,,,,,,,,,,,,,,,,,,,,,,,,,,,,,,,,,,,,,,,,,,,,,,,,,,,,,,,SoundMST/Droplet_B.wav,NEW,water dripping,,,water dripping,6.581,0,59,59,49,1
,,,,,,,,,,,,,,,,11,2022-02-07_11h09.34.050,Session1,2020.2.10,Win32,60,,,,,,,,,,,,,,,,,,,,,,,,,,,,,,,,,,,,,,,,,,,,,,,,,,,,,,,,,,,,,,,SoundMST/Laugh_D.wav,SIMILAR,people laughing,,,people laughing,5.489,0,60,60,78,1
,,,,,,,,,,,,,,,,11,2022-02-07_11h09.34.050,Session1,2020.2.10,Win32,60,,,,,,,,,,,,,,,,,,,,,,,,,,,,,,,,,,,,,,,,,,,,,,,,,,,,,,,,,,,,,,,SoundMST/Camera.wav,NEW,camera shutter,,,camera shutter,7.566,0,61,61,14,1
,,,,,,,,,,,,,,,,11,2022-02-07_11h09.34.050,Session1,2020.2.10,Win32,60,,,,,,,,,,,,,,,,,,,,,,,,,,,,,,,,,,,,,,,,,,,,,,,,,,,,,,,,,,,,,,,SoundMST/Clap_A.wav,NEW,people clapping,,,people clapping,5.866,0,62,62,48,1
,,,,,,,,,,,,,,,,11,2022-02-07_11h09.34.050,Session1,2020.2.10,Win32,60,,,,,,,,,,,,,,,,,,,,,,,,,,,,,,,,,,,,,,,,,,,,,,,,,,,,,,,,,,,,,,,SoundMST/Bowlingpins.wav,NEW,moving furnitures,,,moving furnitures,43.389,0,63,63,59,1
,,,,,,,,,,,,,,,,11,2022-02-07_11h09.34.050,Session1,2020.2.10,Win32,60,,,,,,,,,,,,,,,,,,,,,,,,,,,,,,,,,,,,,,,,,,,,,,,,,,,,,,,,,,,,,,,SoundMST/Coin_E.wav,SIMILAR,taking money off a table,,,taking money off a table,7.248,0,64,64,86,1
,,,,,,,,,,,,,,,,11,2022-02-07_11h09.34.050,Session1,2020.2.10,Win32,60,,,,,,,,,,,,,,,,,,,,,,,,,,,,,,,,,,,,,,,,,,,,,,,,,,,,,,,,,,,,,,,SoundMST/Clap_D.wav,SIMILAR,clapping,,,clapping,10.397,0,65,65,81,1
,,,,,,,,,,,,,,,,11,2022-02-07_11h09.34.050,Session1,2020.2.10,Win32,60,,,,,,,,,,,,,,,,,,,,,,,,,,,,,,,,,,,,,,,,,,,,,,,,,,,,,,,,,,,,,,,SoundMST/DialTone.wav,NEW,phone dial tone,,,phone dial tone,4.935,0,66,66,46,1
,,,,,,,,,,,,,,,,11,2022-02-07_11h09.34.050,Session1,2020.2.10,Win32,60,,,,,,,,,,,,,,,,,,,,,,,,,,,,,,,,,,,,,,,,,,,,,,,,,,,,,,,,,,,,,,,SoundMST/Siren_A.wav,SIMILAR,siren,,,siren,5.436,0,67,67,83,1
,,,,,,,,,,,,,,,,11,2022-02-07_11h09.34.050,Session1,2020.2.10,Win32,60,,,,,,,,,,,,,,,,,,,,,,,,,,,,,,,,,,,,,,,,,,,,,,,,,,,,,,,,,,,,,,,SoundMST/HairDryer_A.wav,NEW,vacuume,,,vacuume,5.514,0,68,68,38,1
,,,,,,,,,,,,,,,,11,2022-02-07_11h09.34.050,Session1,2020.2.10,Win32,60,,,,,,,,,,,,,,,,,,,,,,,,,,,,,,,,,,,,,,,,,,,,,,,,,,,,,,,,,,,,,,,SoundMST/Crow_A.wav,NEW,crow,,,crow,5.717,0,69,69,58,1
,,,,,,,,,,,,,,,,11,2022-02-07_11h09.34.050,Session1,2020.2.10,Win32,60,,,,,,,,,,,,,,,,,,,,,,,,,,,,,,,,,,,,,,,,,,,,,,,,,,,,,,,,,,,,,,,SoundMST/Dog_H.wav,NEW,dog barking,,,dog barking,4.65,0,70,70,29,1
,,,,,,,,,,,,,,,,11,2022-02-07_11h09.34.050,Session1,2020.2.10,Win32,60,,,,,,,,,,,,,,,,,,,,,,,,,,,,,,,,,,,,,,,,,,,,,,,,,,,,,,,,,,,,,,,SoundMST/Bird_A.wav,SIMILAR,bird singing,,,bird singing,6.815,0,71,71,75,1
,,,,,,,,,,,,,,,,11,2022-02-07_11h09.34.050,Session1,2020.2.10,Win32,60,,,,,,,,,,,,,,,,,,,,,,,,,,,,,,,,,,,,,,,,,,,,,,,,,,,,,,,,,,,,,,,SoundMST/Bullfrog.wav,NEW,bull frog,,,bull frog,6,0,72,72,23,1
,,,,,,,,,,,,,,,,11,2022-02-07_11h09.34.050,Session1,2020.2.10,Win32,60,,,,,,,,,,,,,,,,,,,,,,,,,,,,,,,,,,,,,,,,,,,,,,,,,,,,,,,,,,,,,,,SoundMST/Snore_E.wav,SIMILAR,snoring,,,snoring,5.851,0,73,73,71,1
,,,,,,,,,,,,,,,,11,2022-02-07_11h09.34.050,Session1,2020.2.10,Win32,60,,,,,,,,,,,,,,,,,,,,,,,,,,,,,,,,,,,,,,,,,,,,,,,,,,,,,,,,,,,,,,,SoundMST/Piano_D.wav,NEW,playing the piano,,,playing the piano,5.815,0,74,74,7,1
,,,,,,,,,,,,,,,,11,2022-02-07_11h09.34.050,Session1,2020.2.10,Win32,60,,,,,,,,,,,,,,,,,,,,,,,,,,,,,,,,,,,,,,,,,,,,,,,,,,,,,,,,,,,,,,,SoundMST/Sleighbells_B.wav,NEW,sleigh bells,,,sleigh bells,5.29,0,75,75,25,1
,,,,,,,,,,,,,,,,11,2022-02-07_11h09.34.050,Session1,2020.2.10,Win32,60,,,,,,,,,,,,,,,,,,,,,,,,,,,,,,,,,,,,,,,,,,,,,,,,,,,,,,,,,,,,,,,SoundMST/Thunder_A.wav,NEW,thunderstorm,,,thunderstorm,5.449,0,76,76,39,1
,,,,,,,,,,,,,,,,11,2022-02-07_11h09.34.050,Session1,2020.2.10,Win32,60,,,,,,,,,,,,,,,,,,,,,,,,,,,,,,,,,,,,,,,,,,,,,,,,,,,,,,,,,,,,,,,SoundMST/Chomp_A.wav,NEW,eating potato chips,,,eating potato chips,7.682,0,77,77,57,1
,,,,,,,,,,,,,,,,11,2022-02-07_11h09.34.050,Session1,2020.2.10,Win32,60,,,,,,,,,,,,,,,,,,,,,,,,,,,,,,,,,,,,,,,,,,,,,,,,,,,,,,,,,,,,,,,SoundMST/Helicopter_A.wav,NEW,helicopter,,,helicopter,5.281,0,78,78,62,1
,,,,,,,,,,,,,,,,11,2022-02-07_11h09.34.050,Session1,2020.2.10,Win32,60,,,,,,,,,,,,,,,,,,,,,,,,,,,,,,,,,,,,,,,,,,,,,,,,,,,,,,,,,,,,,,,SoundMST/ManWhistle.wav,NEW,whistling,,,whistling,5.318,0,79,79,60,1
,,,,,,,,,,,,,,,,11,2022-02-07_11h09.34.050,Session1,2020.2.10,Win32,60,,,,,,,,,,,,,,,,,,,,,,,,,,,,,,,,,,,,,,,,,,,,,,,,,,,,,,,,,,,,,,,SoundMST/Baby_C.wav,NEW,baby cooing,,,baby cooing,6.22,0,80,80,19,1
,,,,,,,,,,,,,,,,11,2022-02-07_11h09.34.050,Session1,2020.2.10,Win32,60,,,,,,,,,,,,,,,,,,,,,,,,,,,,,,,,,,,,,,,,,,,,,,,,,,,,,,,,,,,,,,,SoundMST/CarStart_D.wav,SIMILAR,starting a car,,,starting a car,5.333,0,81,81,65,1
,,,,,,,,,,,,,,,,11,2022-02-07_11h09.34.050,Session1,2020.2.10,Win32,60,,,,,,,,,,,,,,,,,,,,,,,,,,,,,,,,,,,,,,,,,,,,,,,,,,,,,,,,,,,,,,,SoundMST/Coin_D.wav,NEW,scraping money off the table,,,scraping money off the table,6.716,0,82,82,61,1
,,,,,,,,,,,,,,,,11,2022-02-07_11h09.34.050,Session1,2020.2.10,Win32,60,,,,,,,,,,,,,,,,,,,,,,,,,,,,,,,,,,,,,,,,,,,,,,,,,,,,,,,,,,,,,,,SoundMST/Puff_A.wav,NEW,squeeky toy,,,squeeky toy,6.209,0,83,83,4,1
,,,,,,,,,,,,,,,,11,2022-02-07_11h09.34.050,Session1,2020.2.10,Win32,60,,,,,,,,,,,,,,,,,,,,,,,,,,,,,,,,,,,,,,,,,,,,,,,,,,,,,,,,,,,,,,,SoundMST/Airplane_B.wav,NEW,airplane,,,airplane,7.373,0,84,84,36,1
,,,,,,,,,,,,,,,,11,2022-02-07_11h09.34.050,Session1,2020.2.10,Win32,60,,,,,,,,,,,,,,,,,,,,,,,,,,,,,,,,,,,,,,,,,,,,,,,,,,,,,,,,,,,,,,,SoundMST/Bubbles_A.wav,NEW,water bubbling,,,water bubbling,7.617,0,85,85,63,1
,,,,,,,,,,,,,,,,11,2022-02-07_11h09.34.050,Session1,2020.2.10,Win32,60,,,,,,,,,,,,,,,,,,,,,,,,,,,,,,,,,,,,,,,,,,,,,,,,,,,,,,,,,,,,,,,SoundMST/Horse.wav,NEW,horse,,,horse,4.122,0,86,86,35,1
,,,,,,,,,,,,,,,,11,2022-02-07_11h09.34.050,Session1,2020.2.10,Win32,60,,,,,,,,,,,,,,,,,,,,,,,,,,,,,,,,,,,,,,,,,,,,,,,,,,,,,,,,,,,,,,,SoundMST/Siren_E.wav,NEW,siren,,,siren,5.233,0,87,87,54,1
=======
,,,,,,,,,,,,,,,,11,2022-02-07_11h09.34.050,Session1,2020.2.10,Win32,60,,,,,,,,,,,,,,,,,,,,,space,103.97,,,,,,,,,,,,,,,,,,,,,,,,,,,,,,,,,,,,,,,,,SoundMST/Mosquito_B.wav,NEW,NA,space,16.264,space,16.025,0,0,0,17,1
,,,,,,,,,,,,,,,,11,2022-02-07_11h09.34.050,Session1,2020.2.10,Win32,60,,,,,,,,,,,,,,,,,,,,,,,,,,,,,,,,,,,,,,,,,,,,,,,,,,,,,,,,,,,,,,,SoundMST/Typing.wav,NEW,NA,,,space,6.432,0,1,1,47,1
,,,,,,,,,,,,,,,,11,2022-02-07_11h09.34.050,Session1,2020.2.10,Win32,60,,,,,,,,,,,,,,,,,,,,,,,,,,,,,,,,,,,,,,,,,,,,,,,,,,,,,,,,,,,,,,,SoundMST/Elephant_C.wav,NEW,NA,,,space,5.182,0,2,2,3,1
,,,,,,,,,,,,,,,,11,2022-02-07_11h09.34.050,Session1,2020.2.10,Win32,60,,,,,,,,,,,,,,,,,,,,,,,,,,,,,,,,,,,,,,,,,,,,,,,,,,,,,,,,,,,,,,,SoundMST/Growl_H.wav,NEW,NA,,,space,5.482,0,3,3,45,1
,,,,,,,,,,,,,,,,11,2022-02-07_11h09.34.050,Session1,2020.2.10,Win32,60,,,,,,,,,,,,,,,,,,,,,,,,,,,,,,,,,,,,,,,,,,,,,,,,,,,,,,,,,,,,,,,SoundMST/Pour_C.wav,SIMILAR,NA,,,space,7.634,0,4,4,79,1
,,,,,,,,,,,,,,,,11,2022-02-07_11h09.34.050,Session1,2020.2.10,Win32,60,,,,,,,,,,,,,,,,,,,,,,,,,,,,,,,,,,,,,,,,,,,,,,,,,,,,,,,,,,,,,,,SoundMST/Phone_F.wav,NEW,NA,,,space,4.95,0,5,5,15,1
,,,,,,,,,,,,,,,,11,2022-02-07_11h09.34.050,Session1,2020.2.10,Win32,60,,,,,,,,,,,,,,,,,,,,,,,,,,,,,,,,,,,,,,,,,,,,,,,,,,,,,,,,,,,,,,,SoundMST/Writing_A.wav,NEW,NA,,,space,7.252,0,6,6,1,1
,,,,,,,,,,,,,,,,11,2022-02-07_11h09.34.050,Session1,2020.2.10,Win32,60,,,,,,,,,,,,,,,,,,,,,,,,,,,,,,,,,,,,,,,,,,,,,,,,,,,,,,,,,,,,,,,SoundMST/PaperRip.wav,NEW,NA,,,space,9.736,0,7,7,56,1
,,,,,,,,,,,,,,,,11,2022-02-07_11h09.34.050,Session1,2020.2.10,Win32,60,,,,,,,,,,,,,,,,,,,,,,,,,,,,,,,,,,,,,,,,,,,,,,,,,,,,,,,,,,,,,,,SoundMST/Phone_E.wav,SIMILAR,NA,,,space,5.021,0,8,8,70,1
,,,,,,,,,,,,,,,,11,2022-02-07_11h09.34.050,Session1,2020.2.10,Win32,60,,,,,,,,,,,,,,,,,,,,,,,,,,,,,,,,,,,,,,,,,,,,,,,,,,,,,,,,,,,,,,,SoundMST/Dog_I.wav,SIMILAR,NA,,,space,5.351,0,9,9,77,1
,,,,,,,,,,,,,,,,11,2022-02-07_11h09.34.050,Session1,2020.2.10,Win32,60,,,,,,,,,,,,,,,,,,,,,,,,,,,,,,,,,,,,,,,,,,,,,,,,,,,,,,,,,,,,,,,SoundMST/Hammer_A.wav,NEW,NA,,,space,9.798,0,10,10,32,1
,,,,,,,,,,,,,,,,11,2022-02-07_11h09.34.050,Session1,2020.2.10,Win32,60,,,,,,,,,,,,,,,,,,,,,,,,,,,,,,,,,,,,,,,,,,,,,,,,,,,,,,,,,,,,,,,SoundMST/Guitar_B.wav,NEW,NA,,,space,4.816,0,11,11,24,1
,,,,,,,,,,,,,,,,11,2022-02-07_11h09.34.050,Session1,2020.2.10,Win32,60,,,,,,,,,,,,,,,,,,,,,,,,,,,,,,,,,,,,,,,,,,,,,,,,,,,,,,,,,,,,,,,SoundMST/Fireworks.wav,NEW,NA,,,space,17.578,0,12,12,52,1
,,,,,,,,,,,,,,,,11,2022-02-07_11h09.34.050,Session1,2020.2.10,Win32,60,,,,,,,,,,,,,,,,,,,,,,,,,,,,,,,,,,,,,,,,,,,,,,,,,,,,,,,,,,,,,,,SoundMST/Trumpet_B.wav,NEW,NA,,,space,4.867,0,13,13,5,1
,,,,,,,,,,,,,,,,11,2022-02-07_11h09.34.050,Session1,2020.2.10,Win32,60,,,,,,,,,,,,,,,,,,,,,,,,,,,,,,,,,,,,,,,,,,,,,,,,,,,,,,,,,,,,,,,SoundMST/Heartbeat.wav,NEW,NA,,,space,6.499,0,14,14,6,1
,,,,,,,,,,,,,,,,11,2022-02-07_11h09.34.050,Session1,2020.2.10,Win32,60,,,,,,,,,,,,,,,,,,,,,,,,,,,,,,,,,,,,,,,,,,,,,,,,,,,,,,,,,,,,,,,SoundMST/Bubbles_B.wav,SIMILAR,NA,,,space,7.52,0,15,15,87,1
,,,,,,,,,,,,,,,,11,2022-02-07_11h09.34.050,Session1,2020.2.10,Win32,60,,,,,,,,,,,,,,,,,,,,,,,,,,,,,,,,,,,,,,,,,,,,,,,,,,,,,,,,,,,,,,,SoundMST/Cup.wav,NEW,NA,,,space,14.046,0,16,16,42,1
,,,,,,,,,,,,,,,,11,2022-02-07_11h09.34.050,Session1,2020.2.10,Win32,60,,,,,,,,,,,,,,,,,,,,,,,,,,,,,,,,,,,,,,,,,,,,,,,,,,,,,,,,,,,,,,,SoundMST/Writing_C.wav,SIMILAR,NA,,,space,6.018,0,17,17,64,1
,,,,,,,,,,,,,,,,11,2022-02-07_11h09.34.050,Session1,2020.2.10,Win32,60,,,,,,,,,,,,,,,,,,,,,,,,,,,,,,,,,,,,,,,,,,,,,,,,,,,,,,,,,,,,,,,SoundMST/Trumpet_C.wav,SIMILAR,NA,,,space,7.437,0,18,18,66,1
,,,,,,,,,,,,,,,,11,2022-02-07_11h09.34.050,Session1,2020.2.10,Win32,60,,,,,,,,,,,,,,,,,,,,,,,,,,,,,,,,,,,,,,,,,,,,,,,,,,,,,,,,,,,,,,,SoundMST/Sneeze_B.wav,NEW,NA,,,space,4.302,0,19,19,43,1
,,,,,,,,,,,,,,,,11,2022-02-07_11h09.34.050,Session1,2020.2.10,Win32,60,,,,,,,,,,,,,,,,,,,,,,,,,,,,,,,,,,,,,,,,,,,,,,,,,,,,,,,,,,,,,,,SoundMST/Duck_A.wav,SIMILAR,NA,,,space,4.428,0,20,20,69,1
,,,,,,,,,,,,,,,,11,2022-02-07_11h09.34.050,Session1,2020.2.10,Win32,60,,,,,,,,,,,,,,,,,,,,,,,,,,,,,,,,,,,,,,,,,,,,,,,,,,,,,,,,,,,,,,,SoundMST/Goat_C.wav,NEW,NA,,,space,4.765,0,21,21,12,1
,,,,,,,,,,,,,,,,11,2022-02-07_11h09.34.050,Session1,2020.2.10,Win32,60,,,,,,,,,,,,,,,,,,,,,,,,,,,,,,,,,,,,,,,,,,,,,,,,,,,,,,,,,,,,,,,SoundMST/Airhorn.wav,NEW,NA,,,space,8.305,0,22,22,27,1
,,,,,,,,,,,,,,,,11,2022-02-07_11h09.34.050,Session1,2020.2.10,Win32,60,,,,,,,,,,,,,,,,,,,,,,,,,,,,,,,,,,,,,,,,,,,,,,,,,,,,,,,,,,,,,,,SoundMST/Cough_J.wav,SIMILAR,NA,,,space,5.14,0,23,23,76,1
,,,,,,,,,,,,,,,,11,2022-02-07_11h09.34.050,Session1,2020.2.10,Win32,60,,,,,,,,,,,,,,,,,,,,,,,,,,,,,,,,,,,,,,,,,,,,,,,,,,,,,,,,,,,,,,,SoundMST/Footsteps_F.wav,SIMILAR,NA,,,space,12.701,0,24,24,80,1
,,,,,,,,,,,,,,,,11,2022-02-07_11h09.34.050,Session1,2020.2.10,Win32,60,,,,,,,,,,,,,,,,,,,,,,,,,,,,,,,,,,,,,,,,,,,,,,,,,,,,,,,,,,,,,,,SoundMST/Snore_C.wav,NEW,NA,,,space,7.015,0,25,25,16,1
,,,,,,,,,,,,,,,,11,2022-02-07_11h09.34.050,Session1,2020.2.10,Win32,60,,,,,,,,,,,,,,,,,,,,,,,,,,,,,,,,,,,,,,,,,,,,,,,,,,,,,,,,,,,,,,,SoundMST/Faucet_C.wav,SIMILAR,NA,,,space,8.25,0,26,26,73,1
,,,,,,,,,,,,,,,,11,2022-02-07_11h09.34.050,Session1,2020.2.10,Win32,60,,,,,,,,,,,,,,,,,,,,,,,,,,,,,,,,,,,,,,,,,,,,,,,,,,,,,,,,,,,,,,,SoundMST/Bird_C.wav,NEW,NA,,,space,5.831,0,27,27,22,1
,,,,,,,,,,,,,,,,11,2022-02-07_11h09.34.050,Session1,2020.2.10,Win32,60,,,,,,,,,,,,,,,,,,,,,,,,,,,,,,,,,,,,,,,,,,,,,,,,,,,,,,,,,,,,,,,SoundMST/Whistle_B.wav,NEW,NA,,,space,6.814,0,28,28,51,1
,,,,,,,,,,,,,,,,11,2022-02-07_11h09.34.050,Session1,2020.2.10,Win32,60,,,,,,,,,,,,,,,,,,,,,,,,,,,,,,,,,,,,,,,,,,,,,,,,,,,,,,,,,,,,,,,SoundMST/Wind_B.wav,NEW,NA,,,space,6.532,0,29,29,50,1
,,,,,,,,,,,,,,,,11,2022-02-07_11h09.34.050,Session1,2020.2.10,Win32,60,,,,,,,,,,,,,,,,,,,,,,,,,,,,,,,,,,,,,,,,,,,,,,,,,,,,,,,,,,,,,,,SoundMST/Chime_D.wav,NEW,NA,,,space,6.284,0,30,30,20,1
,,,,,,,,,,,,,,,,11,2022-02-07_11h09.34.050,Session1,2020.2.10,Win32,60,,,,,,,,,,,,,,,,,,,,,,,,,,,,,,,,,,,,,,,,,,,,,,,,,,,,,,,,,,,,,,,SoundMST/Faucet_A.wav,NEW,NA,,,space,6.186,0,31,31,21,1
,,,,,,,,,,,,,,,,11,2022-02-07_11h09.34.050,Session1,2020.2.10,Win32,60,,,,,,,,,,,,,,,,,,,,,,,,,,,,,,,,,,,,,,,,,,,,,,,,,,,,,,,,,,,,,,,SoundMST/Chomp_C.wav,SIMILAR,NA,,,space,8.816,0,32,32,84,1
,,,,,,,,,,,,,,,,11,2022-02-07_11h09.34.050,Session1,2020.2.10,Win32,60,,,,,,,,,,,,,,,,,,,,,,,,,,,,,,,,,,,,,,,,,,,,,,,,,,,,,,,,,,,,,,,SoundMST/Chicken_A.wav,NEW,NA,,,space,5.399,0,33,33,11,1
,,,,,,,,,,,,,,,,11,2022-02-07_11h09.34.050,Session1,2020.2.10,Win32,60,,,,,,,,,,,,,,,,,,,,,,,,,,,,,,,,,,,,,,,,,,,,,,,,,,,,,,,,,,,,,,,SoundMST/ManWhistle_E.wav,SIMILAR,NA,,,space,5.215,0,34,34,85,1
,,,,,,,,,,,,,,,,11,2022-02-07_11h09.34.050,Session1,2020.2.10,Win32,60,,,,,,,,,,,,,,,,,,,,,,,,,,,,,,,,,,,,,,,,,,,,,,,,,,,,,,,,,,,,,,,SoundMST/CarStart_E.wav,NEW,NA,,,space,5.083,0,35,35,2,1
,,,,,,,,,,,,,,,,11,2022-02-07_11h09.34.050,Session1,2020.2.10,Win32,60,,,,,,,,,,,,,,,,,,,,,,,,,,,,,,,,,,,,,,,,,,,,,,,,,,,,,,,,,,,,,,,SoundMST/Baby_B.wav,SIMILAR,NA,,,space,7.132,0,36,36,74,1
,,,,,,,,,,,,,,,,11,2022-02-07_11h09.34.050,Session1,2020.2.10,Win32,60,,,,,,,,,,,,,,,,,,,,,,,,,,,,,,,,,,,,,,,,,,,,,,,,,,,,,,,,,,,,,,,SoundMST/Elephant_A.wav,SIMILAR,NA,,,space,5.52,0,37,37,68,1
,,,,,,,,,,,,,,,,11,2022-02-07_11h09.34.050,Session1,2020.2.10,Win32,60,,,,,,,,,,,,,,,,,,,,,,,,,,,,,,,,,,,,,,,,,,,,,,,,,,,,,,,,,,,,,,,SoundMST/Chime_A.wav,SIMILAR,NA,,,space,5.897,0,38,38,72,1
,,,,,,,,,,,,,,,,11,2022-02-07_11h09.34.050,Session1,2020.2.10,Win32,60,,,,,,,,,,,,,,,,,,,,,,,,,,,,,,,,,,,,,,,,,,,,,,,,,,,,,,,,,,,,,,,SoundMST/Howl.wav,NEW,NA,,,space,9.588,0,39,39,33,1
,,,,,,,,,,,,,,,,11,2022-02-07_11h09.34.050,Session1,2020.2.10,Win32,60,,,,,,,,,,,,,,,,,,,,,,,,,,,,,,,,,,,,,,,,,,,,,,,,,,,,,,,,,,,,,,,SoundMST/Pour_F.wav,NEW,NA,,,space,9,0,40,40,37,1
,,,,,,,,,,,,,,,,11,2022-02-07_11h09.34.050,Session1,2020.2.10,Win32,60,,,,,,,,,,,,,,,,,,,,,,,,,,,,,,,,,,,,,,,,,,,,,,,,,,,,,,,,,,,,,,,SoundMST/Footsteps_C.wav,NEW,NA,,,space,7.317,0,41,41,41,1
,,,,,,,,,,,,,,,,11,2022-02-07_11h09.34.050,Session1,2020.2.10,Win32,60,,,,,,,,,,,,,,,,,,,,,,,,,,,,,,,,,,,,,,,,,,,,,,,,,,,,,,,,,,,,,,,SoundMST/Steam.wav,NEW,NA,,,space,5.484,0,42,42,9,1
,,,,,,,,,,,,,,,,11,2022-02-07_11h09.34.050,Session1,2020.2.10,Win32,60,,,,,,,,,,,,,,,,,,,,,,,,,,,,,,,,,,,,,,,,,,,,,,,,,,,,,,,,,,,,,,,SoundMST/Cello.wav,NEW,NA,,,space,10.099,0,43,43,8,1
,,,,,,,,,,,,,,,,11,2022-02-07_11h09.34.050,Session1,2020.2.10,Win32,60,,,,,,,,,,,,,,,,,,,,,,,,,,,,,,,,,,,,,,,,,,,,,,,,,,,,,,,,,,,,,,,SoundMST/IceDrop.wav,NEW,NA,,,space,7.715,0,44,44,55,1
,,,,,,,,,,,,,,,,11,2022-02-07_11h09.34.050,Session1,2020.2.10,Win32,60,,,,,,,,,,,,,,,,,,,,,,,,,,,,,,,,,,,,,,,,,,,,,,,,,,,,,,,,,,,,,,,SoundMST/Laugh_A.wav,NEW,NA,,,space,5.749,0,45,45,28,1
,,,,,,,,,,,,,,,,11,2022-02-07_11h09.34.050,Session1,2020.2.10,Win32,60,,,,,,,,,,,,,,,,,,,,,,,,,,,,,,,,,,,,,,,,,,,,,,,,,,,,,,,,,,,,,,,SoundMST/Whistle_C.wav,SIMILAR,NA,,,space,4.966,0,46,46,82,1
,,,,,,,,,,,,,,,,11,2022-02-07_11h09.34.050,Session1,2020.2.10,Win32,60,,,,,,,,,,,,,,,,,,,,,,,,,,,,,,,,,,,,,,,,,,,,,,,,,,,,,,,,,,,,,,,SoundMST/Buzz.wav,NEW,NA,,,space,8.865,0,47,47,0,1
,,,,,,,,,,,,,,,,11,2022-02-07_11h09.34.050,Session1,2020.2.10,Win32,60,,,,,,,,,,,,,,,,,,,,,,,,,,,,,,,,,,,,,,,,,,,,,,,,,,,,,,,,,,,,,,,SoundMST/Cow.wav,NEW,NA,,,space,4.166,0,48,48,44,1
,,,,,,,,,,,,,,,,11,2022-02-07_11h09.34.050,Session1,2020.2.10,Win32,60,,,,,,,,,,,,,,,,,,,,,,,,,,,,,,,,,,,,,,,,,,,,,,,,,,,,,,,,,,,,,,,SoundMST/Bagpipe.wav,NEW,NA,,,space,4.621,0,49,49,53,1
,,,,,,,,,,,,,,,,11,2022-02-07_11h09.34.050,Session1,2020.2.10,Win32,60,,,,,,,,,,,,,,,,,,,,,,,,,,,,,,,,,,,,,,,,,,,,,,,,,,,,,,,,,,,,,,,SoundMST/Donkey.wav,NEW,NA,,,space,4.822,0,50,50,30,1
,,,,,,,,,,,,,,,,11,2022-02-07_11h09.34.050,Session1,2020.2.10,Win32,60,,,,,,,,,,,,,,,,,,,,,,,,,,,,,,,,,,,,,,,,,,,,,,,,,,,,,,,,,,,,,,,SoundMST/Toilet_B.wav,NEW,NA,,,space,5.567,0,51,51,40,1
,,,,,,,,,,,,,,,,11,2022-02-07_11h09.34.050,Session1,2020.2.10,Win32,60,,,,,,,,,,,,,,,,,,,,,,,,,,,,,,,,,,,,,,,,,,,,,,,,,,,,,,,,,,,,,,,SoundMST/Printer.wav,NEW,NA,,,space,10.9,0,52,52,34,1
,,,,,,,,,,,,,,,,11,2022-02-07_11h09.34.050,Session1,2020.2.10,Win32,60,,,,,,,,,,,,,,,,,,,,,,,,,,,,,,,,,,,,,,,,,,,,,,,,,,,,,,,,,,,,,,,SoundMST/Duck_B.wav,NEW,NA,,,space,6.948,0,53,53,13,1
,,,,,,,,,,,,,,,,11,2022-02-07_11h09.34.050,Session1,2020.2.10,Win32,60,,,,,,,,,,,,,,,,,,,,,,,,,,,,,,,,,,,,,,,,,,,,,,,,,,,,,,,,,,,,,,,SoundMST/Cough_I.wav,NEW,NA,,,space,4.598,0,54,54,18,1
,,,,,,,,,,,,,,,,11,2022-02-07_11h09.34.050,Session1,2020.2.10,Win32,60,,,,,,,,,,,,,,,,,,,,,,,,,,,,,,,,,,,,,,,,,,,,,,,,,,,,,,,,,,,,,,,SoundMST/Slurp.wav,NEW,NA,,,space,8.817,0,55,55,31,1
,,,,,,,,,,,,,,,,11,2022-02-07_11h09.34.050,Session1,2020.2.10,Win32,60,,,,,,,,,,,,,,,,,,,,,,,,,,,,,,,,,,,,,,,,,,,,,,,,,,,,,,,,,,,,,,,SoundMST/Piano_C.wav,SIMILAR,NA,,,space,6.638,0,56,56,67,1
,,,,,,,,,,,,,,,,11,2022-02-07_11h09.34.050,Session1,2020.2.10,Win32,60,,,,,,,,,,,,,,,,,,,,,,,,,,,,,,,,,,,,,,,,,,,,,,,,,,,,,,,,,,,,,,,SoundMST/Cat_A.wav,NEW,NA,,,space,4.616,0,57,57,26,1
,,,,,,,,,,,,,,,,11,2022-02-07_11h09.34.050,Session1,2020.2.10,Win32,60,,,,,,,,,,,,,,,,,,,,,,,,,,,,,,,,,,,,,,,,,,,,,,,,,,,,,,,,,,,,,,,SoundMST/Cuckoo_A.wav,NEW,NA,,,space,4.65,0,58,58,10,1
,,,,,,,,,,,,,,,,11,2022-02-07_11h09.34.050,Session1,2020.2.10,Win32,60,,,,,,,,,,,,,,,,,,,,,,,,,,,,,,,,,,,,,,,,,,,,,,,,,,,,,,,,,,,,,,,SoundMST/Droplet_B.wav,NEW,NA,,,space,6.581,0,59,59,49,1
,,,,,,,,,,,,,,,,11,2022-02-07_11h09.34.050,Session1,2020.2.10,Win32,60,,,,,,,,,,,,,,,,,,,,,,,,,,,,,,,,,,,,,,,,,,,,,,,,,,,,,,,,,,,,,,,SoundMST/Laugh_D.wav,SIMILAR,NA,,,space,5.489,0,60,60,78,1
,,,,,,,,,,,,,,,,11,2022-02-07_11h09.34.050,Session1,2020.2.10,Win32,60,,,,,,,,,,,,,,,,,,,,,,,,,,,,,,,,,,,,,,,,,,,,,,,,,,,,,,,,,,,,,,,SoundMST/Camera.wav,NEW,NA,,,space,7.566,0,61,61,14,1
,,,,,,,,,,,,,,,,11,2022-02-07_11h09.34.050,Session1,2020.2.10,Win32,60,,,,,,,,,,,,,,,,,,,,,,,,,,,,,,,,,,,,,,,,,,,,,,,,,,,,,,,,,,,,,,,SoundMST/Clap_A.wav,NEW,NA,,,space,5.866,0,62,62,48,1
,,,,,,,,,,,,,,,,11,2022-02-07_11h09.34.050,Session1,2020.2.10,Win32,60,,,,,,,,,,,,,,,,,,,,,,,,,,,,,,,,,,,,,,,,,,,,,,,,,,,,,,,,,,,,,,,SoundMST/Bowlingpins.wav,NEW,NA,,,space,43.389,0,63,63,59,1
,,,,,,,,,,,,,,,,11,2022-02-07_11h09.34.050,Session1,2020.2.10,Win32,60,,,,,,,,,,,,,,,,,,,,,,,,,,,,,,,,,,,,,,,,,,,,,,,,,,,,,,,,,,,,,,,SoundMST/Coin_E.wav,SIMILAR,NA,,,space,7.248,0,64,64,86,1
,,,,,,,,,,,,,,,,11,2022-02-07_11h09.34.050,Session1,2020.2.10,Win32,60,,,,,,,,,,,,,,,,,,,,,,,,,,,,,,,,,,,,,,,,,,,,,,,,,,,,,,,,,,,,,,,SoundMST/Clap_D.wav,SIMILAR,NA,,,space,10.397,0,65,65,81,1
,,,,,,,,,,,,,,,,11,2022-02-07_11h09.34.050,Session1,2020.2.10,Win32,60,,,,,,,,,,,,,,,,,,,,,,,,,,,,,,,,,,,,,,,,,,,,,,,,,,,,,,,,,,,,,,,SoundMST/DialTone.wav,NEW,NA,,,space,4.935,0,66,66,46,1
,,,,,,,,,,,,,,,,11,2022-02-07_11h09.34.050,Session1,2020.2.10,Win32,60,,,,,,,,,,,,,,,,,,,,,,,,,,,,,,,,,,,,,,,,,,,,,,,,,,,,,,,,,,,,,,,SoundMST/Siren_A.wav,SIMILAR,NA,,,space,5.436,0,67,67,83,1
,,,,,,,,,,,,,,,,11,2022-02-07_11h09.34.050,Session1,2020.2.10,Win32,60,,,,,,,,,,,,,,,,,,,,,,,,,,,,,,,,,,,,,,,,,,,,,,,,,,,,,,,,,,,,,,,SoundMST/HairDryer_A.wav,NEW,NA,,,space,5.514,0,68,68,38,1
,,,,,,,,,,,,,,,,11,2022-02-07_11h09.34.050,Session1,2020.2.10,Win32,60,,,,,,,,,,,,,,,,,,,,,,,,,,,,,,,,,,,,,,,,,,,,,,,,,,,,,,,,,,,,,,,SoundMST/Crow_A.wav,NEW,NA,,,space,5.717,0,69,69,58,1
,,,,,,,,,,,,,,,,11,2022-02-07_11h09.34.050,Session1,2020.2.10,Win32,60,,,,,,,,,,,,,,,,,,,,,,,,,,,,,,,,,,,,,,,,,,,,,,,,,,,,,,,,,,,,,,,SoundMST/Dog_H.wav,NEW,NA,,,space,4.65,0,70,70,29,1
,,,,,,,,,,,,,,,,11,2022-02-07_11h09.34.050,Session1,2020.2.10,Win32,60,,,,,,,,,,,,,,,,,,,,,,,,,,,,,,,,,,,,,,,,,,,,,,,,,,,,,,,,,,,,,,,SoundMST/Bird_A.wav,SIMILAR,NA,,,space,6.815,0,71,71,75,1
,,,,,,,,,,,,,,,,11,2022-02-07_11h09.34.050,Session1,2020.2.10,Win32,60,,,,,,,,,,,,,,,,,,,,,,,,,,,,,,,,,,,,,,,,,,,,,,,,,,,,,,,,,,,,,,,SoundMST/Bullfrog.wav,NEW,NA,,,space,6,0,72,72,23,1
,,,,,,,,,,,,,,,,11,2022-02-07_11h09.34.050,Session1,2020.2.10,Win32,60,,,,,,,,,,,,,,,,,,,,,,,,,,,,,,,,,,,,,,,,,,,,,,,,,,,,,,,,,,,,,,,SoundMST/Snore_E.wav,SIMILAR,NA,,,space,5.851,0,73,73,71,1
,,,,,,,,,,,,,,,,11,2022-02-07_11h09.34.050,Session1,2020.2.10,Win32,60,,,,,,,,,,,,,,,,,,,,,,,,,,,,,,,,,,,,,,,,,,,,,,,,,,,,,,,,,,,,,,,SoundMST/Piano_D.wav,NEW,NA,,,space,5.815,0,74,74,7,1
,,,,,,,,,,,,,,,,11,2022-02-07_11h09.34.050,Session1,2020.2.10,Win32,60,,,,,,,,,,,,,,,,,,,,,,,,,,,,,,,,,,,,,,,,,,,,,,,,,,,,,,,,,,,,,,,SoundMST/Sleighbells_B.wav,NEW,NA,,,space,5.29,0,75,75,25,1
,,,,,,,,,,,,,,,,11,2022-02-07_11h09.34.050,Session1,2020.2.10,Win32,60,,,,,,,,,,,,,,,,,,,,,,,,,,,,,,,,,,,,,,,,,,,,,,,,,,,,,,,,,,,,,,,SoundMST/Thunder_A.wav,NEW,NA,,,space,5.449,0,76,76,39,1
,,,,,,,,,,,,,,,,11,2022-02-07_11h09.34.050,Session1,2020.2.10,Win32,60,,,,,,,,,,,,,,,,,,,,,,,,,,,,,,,,,,,,,,,,,,,,,,,,,,,,,,,,,,,,,,,SoundMST/Chomp_A.wav,NEW,NA,,,space,7.682,0,77,77,57,1
,,,,,,,,,,,,,,,,11,2022-02-07_11h09.34.050,Session1,2020.2.10,Win32,60,,,,,,,,,,,,,,,,,,,,,,,,,,,,,,,,,,,,,,,,,,,,,,,,,,,,,,,,,,,,,,,SoundMST/Helicopter_A.wav,NEW,NA,,,space,5.281,0,78,78,62,1
,,,,,,,,,,,,,,,,11,2022-02-07_11h09.34.050,Session1,2020.2.10,Win32,60,,,,,,,,,,,,,,,,,,,,,,,,,,,,,,,,,,,,,,,,,,,,,,,,,,,,,,,,,,,,,,,SoundMST/ManWhistle.wav,NEW,NA,,,space,5.318,0,79,79,60,1
,,,,,,,,,,,,,,,,11,2022-02-07_11h09.34.050,Session1,2020.2.10,Win32,60,,,,,,,,,,,,,,,,,,,,,,,,,,,,,,,,,,,,,,,,,,,,,,,,,,,,,,,,,,,,,,,SoundMST/Baby_C.wav,NEW,NA,,,space,6.22,0,80,80,19,1
,,,,,,,,,,,,,,,,11,2022-02-07_11h09.34.050,Session1,2020.2.10,Win32,60,,,,,,,,,,,,,,,,,,,,,,,,,,,,,,,,,,,,,,,,,,,,,,,,,,,,,,,,,,,,,,,SoundMST/CarStart_D.wav,SIMILAR,NA,,,space,5.333,0,81,81,65,1
,,,,,,,,,,,,,,,,11,2022-02-07_11h09.34.050,Session1,2020.2.10,Win32,60,,,,,,,,,,,,,,,,,,,,,,,,,,,,,,,,,,,,,,,,,,,,,,,,,,,,,,,,,,,,,,,SoundMST/Coin_D.wav,NEW,NA,,,space,6.716,0,82,82,61,1
,,,,,,,,,,,,,,,,11,2022-02-07_11h09.34.050,Session1,2020.2.10,Win32,60,,,,,,,,,,,,,,,,,,,,,,,,,,,,,,,,,,,,,,,,,,,,,,,,,,,,,,,,,,,,,,,SoundMST/Puff_A.wav,NEW,NA,,,space,6.209,0,83,83,4,1
,,,,,,,,,,,,,,,,11,2022-02-07_11h09.34.050,Session1,2020.2.10,Win32,60,,,,,,,,,,,,,,,,,,,,,,,,,,,,,,,,,,,,,,,,,,,,,,,,,,,,,,,,,,,,,,,SoundMST/Airplane_B.wav,NEW,NA,,,space,7.373,0,84,84,36,1
,,,,,,,,,,,,,,,,11,2022-02-07_11h09.34.050,Session1,2020.2.10,Win32,60,,,,,,,,,,,,,,,,,,,,,,,,,,,,,,,,,,,,,,,,,,,,,,,,,,,,,,,,,,,,,,,SoundMST/Bubbles_A.wav,NEW,NA,,,space,7.617,0,85,85,63,1
,,,,,,,,,,,,,,,,11,2022-02-07_11h09.34.050,Session1,2020.2.10,Win32,60,,,,,,,,,,,,,,,,,,,,,,,,,,,,,,,,,,,,,,,,,,,,,,,,,,,,,,,,,,,,,,,SoundMST/Horse.wav,NEW,NA,,,space,4.122,0,86,86,35,1
,,,,,,,,,,,,,,,,11,2022-02-07_11h09.34.050,Session1,2020.2.10,Win32,60,,,,,,,,,,,,,,,,,,,,,,,,,,,,,,,,,,,,,,,,,,,,,,,,,,,,,,,,,,,,,,,SoundMST/Siren_E.wav,NEW,NA,,,space,5.233,0,87,87,54,1
>>>>>>> 3c6b67de205bc033bdd7ba55cb73065ed20c0e27
,,,,,,,,,,,,,,,,11,2022-02-07_11h09.34.050,Session1,2020.2.10,Win32,60,,,,,,,,,,,,,,,,,,,,,space,940.113,,,,,,,,,,,,,,,,,,,,,,,,,,,,,,,,,,,,,,,,,,,,,,,,,,,,
