ContinueResp.keys,ContinueResp.rt,WelcomeContinueKey2.keys,WelcomeContinueKey2.rt,PracticeRespKey2.keys,PracticeRespKey2.rt,Practice_resp.keys,Practice_resp.rt,PracticeTrials.thisRepN,PracticeTrials.thisTrialN,PracticeTrials.thisN,PracticeTrials.thisIndex,PracticeTrials.ran,SoundFile,Type,Correct,participant,date,expName,psychopyVersion,OS,frameRate,StartTast.keys,StartTast.rt,MST_resp.keys,MST_resp.corr,MST_resp.rt,trials.thisRepN,trials.thisTrialN,trials.thisN,trials.thisIndex,trials.ran,File,WordCorrect,Correct_type,WordType,Condition,WordTask.thisRepN,WordTask.thisTrialN,WordTask.thisN,WordTask.thisIndex,WordTask.ran,End1Cont.keys,End1Cont.rt,key_resp.keys,key_resp.rt,PracticeRespKey2II.keys,PracticeRespKey2II.rt,PracticeSoundKey.keys,PracticeSoundKey.rt,SoundPracticeLoop.thisRepN,SoundPracticeLoop.thisTrialN,SoundPracticeLoop.thisN,SoundPracticeLoop.thisIndex,SoundPracticeLoop.ran,SoundMST_File,SoundCorrect,Correct2,SoundType,Trial,MSTSoundStrtKey.keys,MSTSoundStrtKey.rt,MSTSoundKey.keys,MSTSoundKey.corr,MSTSoundKey.rt,MSTSoundLoop.thisRepN,MSTSoundLoop.thisTrialN,MSTSoundLoop.thisN,MSTSoundLoop.thisIndex,MSTSoundLoop.ran,SoundTask.thisRepN,SoundTask.thisTrialN,SoundTask.thisN,SoundTask.thisIndex,SoundTask.ran,SimContKey.keys,SimContKey.rt,SimilarityRatingKey.keys,SimilarityRatingKey.rt,SimilarityRating.thisRepN,SimilarityRating.thisTrialN,SimilarityRating.thisN,SimilarityRating.thisIndex,SimilarityRating.ran,Sound1,Sound2,PairType,Welcome4End.keys,Welcome4End.rt,LabelingKey.keys,LabelingKey.rt,SoundLabelLoop.thisRepN,SoundLabelLoop.thisTrialN,SoundLabelLoop.thisN,SoundLabelLoop.thisIndex,SoundLabelLoop.ran
space,104.401,space,7.643,space,12.391,space,1.857,0,0,0,0,1,Training/FO_YI_LAY.wav,NEW,2,12,2022-06-17_13h04.53.015,Session1,2020.2.10,Win32,60,,,,,,,,,,,,,,,,,,,,,,,,,,,,,,,,,,,,,,,,,,,,,,,,,,,,,,,,,,,,,,,,,,,,,,,,,,
,,,,space,12.158,space,2.174,0,1,1,1,1,Training/FO_YI_LAY.wav,OLD,1,12,2022-06-17_13h04.53.015,Session1,2020.2.10,Win32,60,,,,,,,,,,,,,,,,,,,,,,,,,,,,,,,,,,,,,,,,,,,,,,,,,,,,,,,,,,,,,,,,,,,,,,,,,,
,,,,space,6.511,space,1.457,0,2,2,2,1,Training/YO_BU_JAY.wav,NEW,2,12,2022-06-17_13h04.53.015,Session1,2020.2.10,Win32,60,,,,,,,,,,,,,,,,,,,,,,,,,,,,,,,,,,,,,,,,,,,,,,,,,,,,,,,,,,,,,,,,,,,,,,,,,,
,,,,space,9.561,space,1.541,0,3,3,3,1,Training/JAY_YO_BU.wav,SIMILAR,2,12,2022-06-17_13h04.53.015,Session1,2020.2.10,Win32,60,,,,,,,,,,,,,,,,,,,,,,,,,,,,,,,,,,,,,,,,,,,,,,,,,,,,,,,,,,,,,,,,,,,,,,,,,,
,,,,space,6.66,space,16.109,0,4,4,4,1,Training/FO_YI_LAY.wav,OLD,1,12,2022-06-17_13h04.53.015,Session1,2020.2.10,Win32,60,,,,,,,,,,,,,,,,,,,,,,,,,,,,,,,,,,,,,,,,,,,,,,,,,,,,,,,,,,,,,,,,,,,,,,,,,,
,,,,,,,,,,,,,,,,12,2022-06-17_13h04.53.015,Session1,2020.2.10,Win32,60,space,13.051,2,1,2.722,0,0,0,0,1,TestWords/HA_SI_JAI.wav,2,NEW,NEW,A,,,,,,,,,,,,,,,,,,,,,,,,,,,,,,,,,,,,,,,,,,,,,,,,,,,,,,,,,,,
,,,,,,,,,,,,,,,,12,2022-06-17_13h04.53.015,Session1,2020.2.10,Win32,60,,,2,1,1.191,0,1,1,1,1,TestWords/KO_SU_FAI.wav,2,NEW,NEW,A,,,,,,,,,,,,,,,,,,,,,,,,,,,,,,,,,,,,,,,,,,,,,,,,,,,,,,,,,,,
,,,,,,,,,,,,,,,,12,2022-06-17_13h04.53.015,Session1,2020.2.10,Win32,60,,,2,1,0.971,0,2,2,2,1,TestWords/TAI_GI_SA.wav,2,NEW,NEW,A,,,,,,,,,,,,,,,,,,,,,,,,,,,,,,,,,,,,,,,,,,,,,,,,,,,,,,,,,,,
,,,,,,,,,,,,,,,,12,2022-06-17_13h04.53.015,Session1,2020.2.10,Win32,60,,,2,1,0.925,0,3,3,3,1,TestWords/KAI_LAY_TA.wav,2,NEW,NEW,A,,,,,,,,,,,,,,,,,,,,,,,,,,,,,,,,,,,,,,,,,,,,,,,,,,,,,,,,,,,
,,,,,,,,,,,,,,,,12,2022-06-17_13h04.53.015,Session1,2020.2.10,Win32,60,,,2,1,0.984,0,4,4,4,1,TestWords/RAY_PA_TI.wav,2,NEW,NEW,A,,,,,,,,,,,,,,,,,,,,,,,,,,,,,,,,,,,,,,,,,,,,,,,,,,,,,,,,,,,
,,,,,,,,,,,,,,,,,2022-06-17_13h04.53.015,Session1,2020.2.10,Win32,60,,,2,0,1.651,0,5,5,5,1,TestWords/KO_SU_FAI.wav,1,OLD,OLD,A,,,,,,,,,,,,,,,,,,,,,,,,,,,,,,,,,,,,,,,,,,,,,,,,,,,,,,,,,,,
,,,,,,,,,,,,,,,,,2022-06-17_13h04.53.015,Session1,2020.2.10,Win32,60,,,1,0,1.294,0,6,6,6,1,TestWords/TAI_SA_GI.wav,2,NEW,SIMILAR,A,,,,,,,,,,,,,,,,,,,,,,,,,,,,,,,,,,,,,,,,,,,,,,,,,,,,,,,,,,,
,,,,,,,,,,,,,,,,,2022-06-17_13h04.53.015,Session1,2020.2.10,Win32,60,,,1,1,1.269,0,7,7,7,1,TestWords/KAI_LAY_TA.wav,1,OLD,OLD,A,,,,,,,,,,,,,,,,,,,,,,,,,,,,,,,,,,,,,,,,,,,,,,,,,,,,,,,,,,,
,,,,,,,,,,,,,,,,,2022-06-17_13h04.53.015,Session1,2020.2.10,Win32,60,,,1,0,1.193,0,8,8,8,1,TestWords/NA_WAI_VU.wav,2,NEW,NEW,A,,,,,,,,,,,,,,,,,,,,,,,,,,,,,,,,,,,,,,,,,,,,,,,,,,,,,,,,,,,
,,,,,,,,,,,,,,,,,2022-06-17_13h04.53.015,Session1,2020.2.10,Win32,60,,,1,1,1.175,0,9,9,9,1,TestWords/KO_SU_FAI.wav,1,OLD,OLD,A,,,,,,,,,,,,,,,,,,,,,,,,,,,,,,,,,,,,,,,,,,,,,,,,,,,,,,,,,,,
,,,,,,,,,,,,,,,,,2022-06-17_13h04.53.015,Session1,2020.2.10,Win32,60,,,1,1,1.033,0,10,10,10,1,TestWords/RAY_PA_TI.wav,1,OLD,OLD,A,,,,,,,,,,,,,,,,,,,,,,,,,,,,,,,,,,,,,,,,,,,,,,,,,,,,,,,,,,,
,,,,,,,,,,,,,,,,,2022-06-17_13h04.53.015,Session1,2020.2.10,Win32,60,,,2,1,1.872,0,11,11,11,1,TestWords/GI_SA_TAI.wav,2,NEW,SIMILAR,A,,,,,,,,,,,,,,,,,,,,,,,,,,,,,,,,,,,,,,,,,,,,,,,,,,,,,,,,,,,
,,,,,,,,,,,,,,,,,2022-06-17_13h04.53.015,Session1,2020.2.10,Win32,60,,,1,0,1.64,0,12,12,12,1,TestWords/WAI_VU_NA.wav,2,NEW,SIMILAR,A,,,,,,,,,,,,,,,,,,,,,,,,,,,,,,,,,,,,,,,,,,,,,,,,,,,,,,,,,,,
,,,,,,,,,,,,,,,,,2022-06-17_13h04.53.015,Session1,2020.2.10,Win32,60,,,1,1,1.725,0,13,13,13,1,TestWords/KAI_LAY_TA.wav,1,OLD,OLD,A,,,,,,,,,,,,,,,,,,,,,,,,,,,,,,,,,,,,,,,,,,,,,,,,,,,,,,,,,,,
,,,,,,,,,,,,,,,,,2022-06-17_13h04.53.015,Session1,2020.2.10,Win32,60,,,2,1,1.973,0,14,14,14,1,TestWords/SI_VAI_CHU.wav,2,NEW,NEW,A,,,,,,,,,,,,,,,,,,,,,,,,,,,,,,,,,,,,,,,,,,,,,,,,,,,,,,,,,,,
,,,,,,,,,,,,,,,,,2022-06-17_13h04.53.015,Session1,2020.2.10,Win32,60,,,2,1,2.107,0,15,15,15,1,TestWords/GI_TAI_SA.wav,2,NEW,SIMILAR,A,,,,,,,,,,,,,,,,,,,,,,,,,,,,,,,,,,,,,,,,,,,,,,,,,,,,,,,,,,,
,,,,,,,,,,,,,,,,,2022-06-17_13h04.53.015,Session1,2020.2.10,Win32,60,,,2,0,1.235,0,16,16,16,1,TestWords/KO_SU_FAI.wav,1,OLD,OLD,A,,,,,,,,,,,,,,,,,,,,,,,,,,,,,,,,,,,,,,,,,,,,,,,,,,,,,,,,,,,
,,,,,,,,,,,,,,,,,2022-06-17_13h04.53.015,Session1,2020.2.10,Win32,60,,,1,0,1.718,0,17,17,17,1,TestWords/DA_CHU_VAI.wav,2,NEW,NEW,A,,,,,,,,,,,,,,,,,,,,,,,,,,,,,,,,,,,,,,,,,,,,,,,,,,,,,,,,,,,
,,,,,,,,,,,,,,,,,2022-06-17_13h04.53.015,Session1,2020.2.10,Win32,60,,,1,1,1.251,0,18,18,18,1,TestWords/RAY_PA_TI.wav,1,OLD,OLD,A,,,,,,,,,,,,,,,,,,,,,,,,,,,,,,,,,,,,,,,,,,,,,,,,,,,,,,,,,,,
,,,,,,,,,,,,,,,,,2022-06-17_13h04.53.015,Session1,2020.2.10,Win32,60,,,1,1,0.901,0,19,19,19,1,TestWords/KAI_LAY_TA.wav,1,OLD,OLD,A,,,,,,,,,,,,,,,,,,,,,,,,,,,,,,,,,,,,,,,,,,,,,,,,,,,,,,,,,,,
,,,,,,,,,,,,,,,,,2022-06-17_13h04.53.015,Session1,2020.2.10,Win32,60,,,1,0,1.02,0,20,20,20,1,TestWords/WAI_NA_VU.wav,2,NEW,SIMILAR,A,,,,,,,,,,,,,,,,,,,,,,,,,,,,,,,,,,,,,,,,,,,,,,,,,,,,,,,,,,,
,,,,,,,,,,,,,,,,,2022-06-17_13h04.53.015,Session1,2020.2.10,Win32,60,,,1,1,1.119,0,21,21,21,1,TestWords/KO_SU_FAI.wav,1,OLD,OLD,A,,,,,,,,,,,,,,,,,,,,,,,,,,,,,,,,,,,,,,,,,,,,,,,,,,,,,,,,,,,
,,,,,,,,,,,,,,,,,2022-06-17_13h04.53.015,Session1,2020.2.10,Win32,60,,,2,1,2.169,0,22,22,22,1,TestWords/SA_TAI_GI.wav,2,NEW,SIMILAR,A,,,,,,,,,,,,,,,,,,,,,,,,,,,,,,,,,,,,,,,,,,,,,,,,,,,,,,,,,,,
,,,,,,,,,,,,,,,,,2022-06-17_13h04.53.015,Session1,2020.2.10,Win32,60,,,1,1,0.958,0,23,23,23,1,TestWords/RAY_PA_TI.wav,1,OLD,OLD,A,,,,,,,,,,,,,,,,,,,,,,,,,,,,,,,,,,,,,,,,,,,,,,,,,,,,,,,,,,,
,,,,,,,,,,,,,,,,,2022-06-17_13h04.53.015,Session1,2020.2.10,Win32,60,,,2,1,1.886,0,24,24,24,1,TestWords/VU_NA_WAI.wav,2,NEW,SIMILAR,A,,,,,,,,,,,,,,,,,,,,,,,,,,,,,,,,,,,,,,,,,,,,,,,,,,,,,,,,,,,
,,,,,,,,,,,,,,,,,2022-06-17_13h04.53.015,Session1,2020.2.10,Win32,60,,,1,1,2.367,0,25,25,25,1,TestWords/KAI_LAY_TA.wav,1,OLD,OLD,A,,,,,,,,,,,,,,,,,,,,,,,,,,,,,,,,,,,,,,,,,,,,,,,,,,,,,,,,,,,
,,,,,,,,,,,,,,,,,2022-06-17_13h04.53.015,Session1,2020.2.10,Win32,60,,,1,0,1.652,0,26,26,26,1,TestWords/WAI_RO_JU.wav,2,NEW,NEW,A,,,,,,,,,,,,,,,,,,,,,,,,,,,,,,,,,,,,,,,,,,,,,,,,,,,,,,,,,,,
,,,,,,,,,,,,,,,,,2022-06-17_13h04.53.015,Session1,2020.2.10,Win32,60,,,1,1,1.089,0,27,27,27,1,TestWords/KO_SU_FAI.wav,1,OLD,OLD,A,,,,,,,,,,,,,,,,,,,,,,,,,,,,,,,,,,,,,,,,,,,,,,,,,,,,,,,,,,,
,,,,,,,,,,,,,,,,,2022-06-17_13h04.53.015,Session1,2020.2.10,Win32,60,,,1,0,1.184,0,28,28,28,1,TestWords/SA_GI_TAI.wav,2,NEW,SIMILAR,A,,,,,,,,,,,,,,,,,,,,,,,,,,,,,,,,,,,,,,,,,,,,,,,,,,,,,,,,,,,
,,,,,,,,,,,,,,,,,2022-06-17_13h04.53.015,Session1,2020.2.10,Win32,60,,,1,1,0.818,0,29,29,29,1,TestWords/RAY_PA_TI.wav,1,OLD,OLD,A,,,,,,,,,,,,,,,,,,,,,,,,,,,,,,,,,,,,,,,,,,,,,,,,,,,,,,,,,,,
,,,,,,,,,,,,,,,,,2022-06-17_13h04.53.015,Session1,2020.2.10,Win32,60,,,2,1,1.118,0,30,30,30,1,TestWords/GA_MU_ZI.wav,2,NEW,NEW,A,,,,,,,,,,,,,,,,,,,,,,,,,,,,,,,,,,,,,,,,,,,,,,,,,,,,,,,,,,,
,,,,,,,,,,,,,,,,,2022-06-17_13h04.53.015,Session1,2020.2.10,Win32,60,,,1,1,1.019,0,31,31,31,1,TestWords/KAI_LAY_TA.wav,1,OLD,OLD,A,,,,,,,,,,,,,,,,,,,,,,,,,,,,,,,,,,,,,,,,,,,,,,,,,,,,,,,,,,,
,,,,,,,,,,,,,,,,,2022-06-17_13h04.53.015,Session1,2020.2.10,Win32,60,,,1,0,0.917,0,32,32,32,1,TestWords/VU_WAI_NA.wav,2,NEW,SIMILAR,A,,,,,,,,,,,,,,,,,,,,,,,,,,,,,,,,,,,,,,,,,,,,,,,,,,,,,,,,,,,
,,,,,,,,,,,,,,,,,2022-06-17_13h04.53.015,Session1,2020.2.10,Win32,60,,,1,1,1.168,0,33,33,33,1,TestWords/RAY_PA_TI.wav,1,OLD,OLD,A,,,,,,,,,,,,,,,,,,,,,,,,,,,,,,,,,,,,,,,,,,,,,,,,,,,,,,,,,,,
,,,,,,,,,,,,,,,,,2022-06-17_13h04.53.015,Session1,2020.2.10,Win32,60,,,2,1,0.955,0,34,34,34,1,TestWords/LI_KAY_BA.wav,2,NEW,NEW,A,,,,,,,,,,,,,,,,,,,,,,,,,,,,,,,,,,,,,,,,,,,,,,,,,,,,,,,,,,,
,,,,,,,,,,,,,,,,,2022-06-17_13h04.53.015,Session1,2020.2.10,Win32,60,,,2,1,1.984,0,35,35,35,1,TestWords/HI_NAY_VA.wav,2,NEW,NEW,A,,,,,,,,,,,,,,,,,,,,,,,,,,,,,,,,,,,,,,,,,,,,,,,,,,,,,,,,,,,
,,,,,,,,,,,,,,,,,2022-06-17_13h04.53.015,Session1,2020.2.10,Win32,60,,,1,1,1.017,0,36,36,36,1,TestWords/KO_SU_FAI.wav,1,OLD,OLD,A,,,,,,,,,,,,,,,,,,,,,,,,,,,,,,,,,,,,,,,,,,,,,,,,,,,,,,,,,,,
,,,,,,,,,,,,,,,,,2022-06-17_13h04.53.015,Session1,2020.2.10,Win32,60,,,1,0,0.834,0,37,37,37,1,TestWords/NA_VU_WAI.wav,2,NEW,SIMILAR,A,,,,,,,,,,,,,,,,,,,,,,,,,,,,,,,,,,,,,,,,,,,,,,,,,,,,,,,,,,,
,,,,,,,,,,,,,,,,,2022-06-17_13h04.53.015,Session1,2020.2.10,Win32,60,,,2,0,2.191,0,38,38,38,1,TestWords/GA_MU_ZI.wav,1,OLD,OLD,A,,,,,,,,,,,,,,,,,,,,,,,,,,,,,,,,,,,,,,,,,,,,,,,,,,,,,,,,,,,
,,,,,,,,,,,,,,,,,2022-06-17_13h04.53.015,Session1,2020.2.10,Win32,60,,,1,1,1.019,0,39,39,39,1,TestWords/KAI_LAY_TA.wav,1,OLD,OLD,A,,,,,,,,,,,,,,,,,,,,,,,,,,,,,,,,,,,,,,,,,,,,,,,,,,,,,,,,,,,
,,,,,,,,,,,,,,,,,2022-06-17_13h04.53.015,Session1,2020.2.10,Win32,60,,,2,1,1.435,0,40,40,40,1,TestWords/DAI_RU_CHI.wav,2,NEW,NEW,A,,,,,,,,,,,,,,,,,,,,,,,,,,,,,,,,,,,,,,,,,,,,,,,,,,,,,,,,,,,
,,,,,,,,,,,,,,,,,2022-06-17_13h04.53.015,Session1,2020.2.10,Win32,60,,,1,0,1.458,0,41,41,41,1,TestWords/NU_CHAY_SO.wav,2,NEW,NEW,A,,,,,,,,,,,,,,,,,,,,,,,,,,,,,,,,,,,,,,,,,,,,,,,,,,,,,,,,,,,
,,,,,,,,,,,,,,,,,2022-06-17_13h04.53.015,Session1,2020.2.10,Win32,60,,,1,1,1.038,0,42,42,42,1,TestWords/RAY_PA_TI.wav,1,OLD,OLD,A,,,,,,,,,,,,,,,,,,,,,,,,,,,,,,,,,,,,,,,,,,,,,,,,,,,,,,,,,,,
,,,,,,,,,,,,,,,,,2022-06-17_13h04.53.015,Session1,2020.2.10,Win32,60,,,2,1,1.504,0,43,43,43,1,TestWords/BA_KAY_LI.wav,2,NEW,SIMILAR,A,,,,,,,,,,,,,,,,,,,,,,,,,,,,,,,,,,,,,,,,,,,,,,,,,,,,,,,,,,,
,,,,,,,,,,,,,,,,,2022-06-17_13h04.53.015,Session1,2020.2.10,Win32,60,,,1,1,1.224,0,44,44,44,1,TestWords/KO_SU_FAI.wav,1,OLD,OLD,A,,,,,,,,,,,,,,,,,,,,,,,,,,,,,,,,,,,,,,,,,,,,,,,,,,,,,,,,,,,
,,,,,,,,,,,,,,,,,2022-06-17_13h04.53.015,Session1,2020.2.10,Win32,60,,,1,1,1.693,0,45,45,45,1,TestWords/GA_MU_ZI.wav,1,OLD,OLD,A,,,,,,,,,,,,,,,,,,,,,,,,,,,,,,,,,,,,,,,,,,,,,,,,,,,,,,,,,,,
,,,,,,,,,,,,,,,,,2022-06-17_13h04.53.015,Session1,2020.2.10,Win32,60,,,1,0,1.637,0,46,46,46,1,TestWords/CHU_LA_PAY.wav,2,NEW,NEW,A,,,,,,,,,,,,,,,,,,,,,,,,,,,,,,,,,,,,,,,,,,,,,,,,,,,,,,,,,,,
,,,,,,,,,,,,,,,,,2022-06-17_13h04.53.015,Session1,2020.2.10,Win32,60,,,1,1,1,0,47,47,47,1,TestWords/KAI_LAY_TA.wav,1,OLD,OLD,A,,,,,,,,,,,,,,,,,,,,,,,,,,,,,,,,,,,,,,,,,,,,,,,,,,,,,,,,,,,
,,,,,,,,,,,,,,,,,2022-06-17_13h04.53.015,Session1,2020.2.10,Win32,60,,,1,1,0.925,0,48,48,48,1,TestWords/DAI_RU_CHI.wav,1,OLD,OLD,A,,,,,,,,,,,,,,,,,,,,,,,,,,,,,,,,,,,,,,,,,,,,,,,,,,,,,,,,,,,
,,,,,,,,,,,,,,,,,2022-06-17_13h04.53.015,Session1,2020.2.10,Win32,60,,,1,1,0.822,0,49,49,49,1,TestWords/KO_SU_FAI.wav,1,OLD,OLD,A,,,,,,,,,,,,,,,,,,,,,,,,,,,,,,,,,,,,,,,,,,,,,,,,,,,,,,,,,,,
,,,,,,,,,,,,,,,,,2022-06-17_13h04.53.015,Session1,2020.2.10,Win32,60,,,1,0,0.902,0,50,50,50,1,TestWords/KAY_LI_BA.wav,2,NEW,SIMILAR,A,,,,,,,,,,,,,,,,,,,,,,,,,,,,,,,,,,,,,,,,,,,,,,,,,,,,,,,,,,,
,,,,,,,,,,,,,,,,,2022-06-17_13h04.53.015,Session1,2020.2.10,Win32,60,,,1,1,0.843,0,51,51,51,1,TestWords/RAY_PA_TI.wav,1,OLD,OLD,A,,,,,,,,,,,,,,,,,,,,,,,,,,,,,,,,,,,,,,,,,,,,,,,,,,,,,,,,,,,
,,,,,,,,,,,,,,,,,2022-06-17_13h04.53.015,Session1,2020.2.10,Win32,60,,,1,1,1.206,0,52,52,52,1,TestWords/KAI_LAY_TA.wav,1,OLD,OLD,A,,,,,,,,,,,,,,,,,,,,,,,,,,,,,,,,,,,,,,,,,,,,,,,,,,,,,,,,,,,
,,,,,,,,,,,,,,,,,2022-06-17_13h04.53.015,Session1,2020.2.10,Win32,60,,,2,1,1.685,0,53,53,53,1,TestWords/HO_NAY_VA.wav,2,NEW,NEW,A,,,,,,,,,,,,,,,,,,,,,,,,,,,,,,,,,,,,,,,,,,,,,,,,,,,,,,,,,,,
,,,,,,,,,,,,,,,,,2022-06-17_13h04.53.015,Session1,2020.2.10,Win32,60,,,2,0,1.469,0,54,54,54,1,TestWords/GA_MU_ZI.wav,1,OLD,OLD,A,,,,,,,,,,,,,,,,,,,,,,,,,,,,,,,,,,,,,,,,,,,,,,,,,,,,,,,,,,,
,,,,,,,,,,,,,,,,,2022-06-17_13h04.53.015,Session1,2020.2.10,Win32,60,,,1,1,1.136,0,55,55,55,1,TestWords/DAI_RU_CHI.wav,1,OLD,OLD,A,,,,,,,,,,,,,,,,,,,,,,,,,,,,,,,,,,,,,,,,,,,,,,,,,,,,,,,,,,,
,,,,,,,,,,,,,,,,,2022-06-17_13h04.53.015,Session1,2020.2.10,Win32,60,,,1,0,1.301,0,56,56,56,1,TestWords/MO_PU_DAY.wav,2,NEW,NEW,A,,,,,,,,,,,,,,,,,,,,,,,,,,,,,,,,,,,,,,,,,,,,,,,,,,,,,,,,,,,
,,,,,,,,,,,,,,,,,2022-06-17_13h04.53.015,Session1,2020.2.10,Win32,60,,,1,1,1.158,0,57,57,57,1,TestWords/KO_SU_FAI.wav,1,OLD,OLD,A,,,,,,,,,,,,,,,,,,,,,,,,,,,,,,,,,,,,,,,,,,,,,,,,,,,,,,,,,,,
,,,,,,,,,,,,,,,,,2022-06-17_13h04.53.015,Session1,2020.2.10,Win32,60,,,1,0,0.941,0,58,58,58,1,TestWords/KAY_BA_LI.wav,2,NEW,SIMILAR,A,,,,,,,,,,,,,,,,,,,,,,,,,,,,,,,,,,,,,,,,,,,,,,,,,,,,,,,,,,,
,,,,,,,,,,,,,,,,,2022-06-17_13h04.53.015,Session1,2020.2.10,Win32,60,,,1,1,0.908,0,59,59,59,1,TestWords/RAY_PA_TI.wav,1,OLD,OLD,A,,,,,,,,,,,,,,,,,,,,,,,,,,,,,,,,,,,,,,,,,,,,,,,,,,,,,,,,,,,
,,,,,,,,,,,,,,,,,2022-06-17_13h04.53.015,Session1,2020.2.10,Win32,60,,,1,1,1.124,0,60,60,60,1,TestWords/KAI_LAY_TA.wav,1,OLD,OLD,A,,,,,,,,,,,,,,,,,,,,,,,,,,,,,,,,,,,,,,,,,,,,,,,,,,,,,,,,,,,
,,,,,,,,,,,,,,,,,2022-06-17_13h04.53.015,Session1,2020.2.10,Win32,60,,,1,1,1.355,0,61,61,61,1,TestWords/GA_MU_ZI.wav,1,OLD,OLD,A,,,,,,,,,,,,,,,,,,,,,,,,,,,,,,,,,,,,,,,,,,,,,,,,,,,,,,,,,,,
,,,,,,,,,,,,,,,,,2022-06-17_13h04.53.015,Session1,2020.2.10,Win32,60,,,1,0,0.906,0,62,62,62,1,TestWords/DAY_PU_MO.wav,2,NEW,SIMILAR,A,,,,,,,,,,,,,,,,,,,,,,,,,,,,,,,,,,,,,,,,,,,,,,,,,,,,,,,,,,,
,,,,,,,,,,,,,,,,,2022-06-17_13h04.53.015,Session1,2020.2.10,Win32,60,,,2,0,1.522,0,63,63,63,1,TestWords/DAI_RU_CHI.wav,1,OLD,OLD,A,,,,,,,,,,,,,,,,,,,,,,,,,,,,,,,,,,,,,,,,,,,,,,,,,,,,,,,,,,,
,,,,,,,,,,,,,,,,,2022-06-17_13h04.53.015,Session1,2020.2.10,Win32,60,,,2,1,1.787,0,64,64,64,1,TestWords/LI_BA_KAY.wav,2,NEW,SIMILAR,A,,,,,,,,,,,,,,,,,,,,,,,,,,,,,,,,,,,,,,,,,,,,,,,,,,,,,,,,,,,
,,,,,,,,,,,,,,,,,2022-06-17_13h04.53.015,Session1,2020.2.10,Win32,60,,,1,1,0.968,0,65,65,65,1,TestWords/KAI_LAY_TA.wav,1,OLD,OLD,A,,,,,,,,,,,,,,,,,,,,,,,,,,,,,,,,,,,,,,,,,,,,,,,,,,,,,,,,,,,
,,,,,,,,,,,,,,,,,2022-06-17_13h04.53.015,Session1,2020.2.10,Win32,60,,,1,1,0.976,0,66,66,66,1,TestWords/KO_SU_FAI.wav,1,OLD,OLD,A,,,,,,,,,,,,,,,,,,,,,,,,,,,,,,,,,,,,,,,,,,,,,,,,,,,,,,,,,,,
,,,,,,,,,,,,,,,,,2022-06-17_13h04.53.015,Session1,2020.2.10,Win32,60,,,2,1,1.251,0,67,67,67,1,TestWords/DAY_MO_PU.wav,2,NEW,SIMILAR,A,,,,,,,,,,,,,,,,,,,,,,,,,,,,,,,,,,,,,,,,,,,,,,,,,,,,,,,,,,,
,,,,,,,,,,,,,,,,,2022-06-17_13h04.53.015,Session1,2020.2.10,Win32,60,,,1,1,1.272,0,68,68,68,1,TestWords/RAY_PA_TI.wav,1,OLD,OLD,A,,,,,,,,,,,,,,,,,,,,,,,,,,,,,,,,,,,,,,,,,,,,,,,,,,,,,,,,,,,
,,,,,,,,,,,,,,,,,2022-06-17_13h04.53.015,Session1,2020.2.10,Win32,60,,,1,1,0.885,0,69,69,69,1,TestWords/GA_MU_ZI.wav,1,OLD,OLD,A,,,,,,,,,,,,,,,,,,,,,,,,,,,,,,,,,,,,,,,,,,,,,,,,,,,,,,,,,,,
,,,,,,,,,,,,,,,,,2022-06-17_13h04.53.015,Session1,2020.2.10,Win32,60,,,2,1,0.868,0,70,70,70,1,TestWords/BA_LI_KAY.wav,2,NEW,SIMILAR,A,,,,,,,,,,,,,,,,,,,,,,,,,,,,,,,,,,,,,,,,,,,,,,,,,,,,,,,,,,,
,,,,,,,,,,,,,,,,,2022-06-17_13h04.53.015,Session1,2020.2.10,Win32,60,,,1,1,0.902,0,71,71,71,1,TestWords/DAI_RU_CHI.wav,1,OLD,OLD,A,,,,,,,,,,,,,,,,,,,,,,,,,,,,,,,,,,,,,,,,,,,,,,,,,,,,,,,,,,,
,,,,,,,,,,,,,,,,,2022-06-17_13h04.53.015,Session1,2020.2.10,Win32,60,,,1,0,1.406,0,72,72,72,1,TestWords/LU_HAI_BO.wav,2,NEW,NEW,A,,,,,,,,,,,,,,,,,,,,,,,,,,,,,,,,,,,,,,,,,,,,,,,,,,,,,,,,,,,
,,,,,,,,,,,,,,,,,2022-06-17_13h04.53.015,Session1,2020.2.10,Win32,60,,,1,1,1.335,0,73,73,73,1,TestWords/RAY_PA_TI.wav,1,OLD,OLD,A,,,,,,,,,,,,,,,,,,,,,,,,,,,,,,,,,,,,,,,,,,,,,,,,,,,,,,,,,,,
,,,,,,,,,,,,,,,,,2022-06-17_13h04.53.015,Session1,2020.2.10,Win32,60,,,2,0,2.482,0,74,74,74,1,TestWords/GA_MU_ZI.wav,1,OLD,OLD,A,,,,,,,,,,,,,,,,,,,,,,,,,,,,,,,,,,,,,,,,,,,,,,,,,,,,,,,,,,,
,,,,,,,,,,,,,,,,,2022-06-17_13h04.53.015,Session1,2020.2.10,Win32,60,,,2,1,1.371,0,75,75,75,1,TestWords/MO_DAY_PU.wav,2,NEW,SIMILAR,A,,,,,,,,,,,,,,,,,,,,,,,,,,,,,,,,,,,,,,,,,,,,,,,,,,,,,,,,,,,
,,,,,,,,,,,,,,,,,2022-06-17_13h04.53.015,Session1,2020.2.10,Win32,60,,,1,1,1.209,0,76,76,76,1,TestWords/DAI_RU_CHI.wav,1,OLD,OLD,A,,,,,,,,,,,,,,,,,,,,,,,,,,,,,,,,,,,,,,,,,,,,,,,,,,,,,,,,,,,
,,,,,,,,,,,,,,,,,2022-06-17_13h04.53.015,Session1,2020.2.10,Win32,60,,,2,1,1.687,0,77,77,77,1,TestWords/ZO_FU_RAI.wav,2,NEW,NEW,A,,,,,,,,,,,,,,,,,,,,,,,,,,,,,,,,,,,,,,,,,,,,,,,,,,,,,,,,,,,
,,,,,,,,,,,,,,,,,2022-06-17_13h04.53.015,Session1,2020.2.10,Win32,60,,,2,1,1.254,0,78,78,78,1,TestWords/NO_WA_BAY.wav,2,NEW,NEW,A,,,,,,,,,,,,,,,,,,,,,,,,,,,,,,,,,,,,,,,,,,,,,,,,,,,,,,,,,,,
,,,,,,,,,,,,,,,,,2022-06-17_13h04.53.015,Session1,2020.2.10,Win32,60,,,1,1,1.12,0,79,79,79,1,TestWords/GA_MU_ZI.wav,1,OLD,OLD,A,,,,,,,,,,,,,,,,,,,,,,,,,,,,,,,,,,,,,,,,,,,,,,,,,,,,,,,,,,,
,,,,,,,,,,,,,,,,,2022-06-17_13h04.53.015,Session1,2020.2.10,Win32,60,,,1,1,1.385,0,80,80,80,1,TestWords/DAI_RU_CHI.wav,1,OLD,OLD,A,,,,,,,,,,,,,,,,,,,,,,,,,,,,,,,,,,,,,,,,,,,,,,,,,,,,,,,,,,,
,,,,,,,,,,,,,,,,,2022-06-17_13h04.53.015,Session1,2020.2.10,Win32,60,,,1,0,1.625,0,81,81,81,1,TestWords/PU_DAY_MO.wav,2,NEW,SIMILAR,A,,,,,,,,,,,,,,,,,,,,,,,,,,,,,,,,,,,,,,,,,,,,,,,,,,,,,,,,,,,
,,,,,,,,,,,,,,,,,2022-06-17_13h04.53.015,Session1,2020.2.10,Win32,60,,,2,1,1.292,0,82,82,82,1,TestWords/RAI_ZO_FU.wav,2,NEW,SIMILAR,A,,,,,,,,,,,,,,,,,,,,,,,,,,,,,,,,,,,,,,,,,,,,,,,,,,,,,,,,,,,
,,,,,,,,,,,,,,,,,2022-06-17_13h04.53.015,Session1,2020.2.10,Win32,60,,,1,1,0.767,0,83,83,83,1,TestWords/GA_MU_ZI.wav,1,OLD,OLD,A,,,,,,,,,,,,,,,,,,,,,,,,,,,,,,,,,,,,,,,,,,,,,,,,,,,,,,,,,,,
,,,,,,,,,,,,,,,,,2022-06-17_13h04.53.015,Session1,2020.2.10,Win32,60,,,1,0,0.751,0,84,84,84,1,TestWords/PAI_LU_WA.wav,2,NEW,NEW,A,,,,,,,,,,,,,,,,,,,,,,,,,,,,,,,,,,,,,,,,,,,,,,,,,,,,,,,,,,,
,,,,,,,,,,,,,,,,,2022-06-17_13h04.53.015,Session1,2020.2.10,Win32,60,,,2,1,1.073,0,85,85,85,1,TestWords/PU_MO_DAY.wav,2,NEW,SIMILAR,A,,,,,,,,,,,,,,,,,,,,,,,,,,,,,,,,,,,,,,,,,,,,,,,,,,,,,,,,,,,
,,,,,,,,,,,,,,,,,2022-06-17_13h04.53.015,Session1,2020.2.10,Win32,60,,,1,1,1.2,0,86,86,86,1,TestWords/DAI_RU_CHI.wav,1,OLD,OLD,A,,,,,,,,,,,,,,,,,,,,,,,,,,,,,,,,,,,,,,,,,,,,,,,,,,,,,,,,,,,
,,,,,,,,,,,,,,,,,2022-06-17_13h04.53.015,Session1,2020.2.10,Win32,60,,,2,1,1.286,0,87,87,87,1,TestWords/ZO_RAI_FU.wav,2,NEW,SIMILAR,A,,,,,,,,,,,,,,,,,,,,,,,,,,,,,,,,,,,,,,,,,,,,,,,,,,,,,,,,,,,
,,,,,,,,,,,,,,,,,2022-06-17_13h04.53.015,Session1,2020.2.10,Win32,60,,,2,1,1.152,0,88,88,88,1,TestWords/FI_GU_CHA.wav,2,NEW,NEW,A,,,,,,,,,,,,,,,,,,,,,,,,,,,,,,,,,,,,,,,,,,,,,,,,,,,,,,,,,,,
,,,,,,,,,,,,,,,,,2022-06-17_13h04.53.015,Session1,2020.2.10,Win32,60,,,1,1,0.902,0,89,89,89,1,TestWords/GA_MU_ZI.wav,1,OLD,OLD,A,,,,,,,,,,,,,,,,,,,,,,,,,,,,,,,,,,,,,,,,,,,,,,,,,,,,,,,,,,,
,,,,,,,,,,,,,,,,,2022-06-17_13h04.53.015,Session1,2020.2.10,Win32,60,,,1,1,1.256,0,90,90,90,1,TestWords/DAI_RU_CHI.wav,1,OLD,OLD,A,,,,,,,,,,,,,,,,,,,,,,,,,,,,,,,,,,,,,,,,,,,,,,,,,,,,,,,,,,,
,,,,,,,,,,,,,,,,,2022-06-17_13h04.53.015,Session1,2020.2.10,Win32,60,,,2,1,2.171,0,91,91,91,1,TestWords/FU_RAI_ZO.wav,2,NEW,SIMILAR,A,,,,,,,,,,,,,,,,,,,,,,,,,,,,,,,,,,,,,,,,,,,,,,,,,,,,,,,,,,,
,,,,,,,,,,,,,,,,,2022-06-17_13h04.53.015,Session1,2020.2.10,Win32,60,,,1,0,1.168,0,92,92,92,1,TestWords/GU_CHAI_PI.wav,2,NEW,NEW,A,,,,,,,,,,,,,,,,,,,,,,,,,,,,,,,,,,,,,,,,,,,,,,,,,,,,,,,,,,,
,,,,,,,,,,,,,,,,,2022-06-17_13h04.53.015,Session1,2020.2.10,Win32,60,,,1,1,1.118,0,93,93,93,1,TestWords/GA_MU_ZI.wav,1,OLD,OLD,A,,,,,,,,,,,,,,,,,,,,,,,,,,,,,,,,,,,,,,,,,,,,,,,,,,,,,,,,,,,
,,,,,,,,,,,,,,,,,2022-06-17_13h04.53.015,Session1,2020.2.10,Win32,60,,,1,1,1.334,0,94,94,94,1,TestWords/DAI_RU_CHI.wav,1,OLD,OLD,A,,,,,,,,,,,,,,,,,,,,,,,,,,,,,,,,,,,,,,,,,,,,,,,,,,,,,,,,,,,
,,,,,,,,,,,,,,,,,2022-06-17_13h04.53.015,Session1,2020.2.10,Win32,60,,,2,1,2.055,0,95,95,95,1,TestWords/FU_ZO_RAI.wav,2,NEW,SIMILAR,A,,,,,,,,,,,,,,,,,,,,,,,,,,,,,,,,,,,,,,,,,,,,,,,,,,,,,,,,,,,
,,,,,,,,,,,,,,,,,2022-06-17_13h04.53.015,Session1,2020.2.10,Win32,60,,,2,1,1.316,0,96,96,96,1,TestWords/VAI_HO_LA.wav,2,NEW,NEW,A,,,,,,,,,,,,,,,,,,,,,,,,,,,,,,,,,,,,,,,,,,,,,,,,,,,,,,,,,,,
,,,,,,,,,,,,,,,,,2022-06-17_13h04.53.015,Session1,2020.2.10,Win32,60,,,1,1,1.288,0,97,97,97,1,TestWords/DAI_RU_CHI.wav,1,OLD,OLD,A,,,,,,,,,,,,,,,,,,,,,,,,,,,,,,,,,,,,,,,,,,,,,,,,,,,,,,,,,,,
,,,,,,,,,,,,,,,,,2022-06-17_13h04.53.015,Session1,2020.2.10,Win32,60,,,2,1,1.069,0,98,98,98,1,TestWords/LA_ZAY_CHAI.wav,2,NEW,NEW,A,,,,,,,,,,,,,,,,,,,,,,,,,,,,,,,,,,,,,,,,,,,,,,,,,,,,,,,,,,,
,,,,,,,,,,,,,,,,,2022-06-17_13h04.53.015,Session1,2020.2.10,Win32,60,,,1,0,1.371,0,99,99,99,1,TestWords/RAI_FU_ZO.wav,2,NEW,SIMILAR,A,,,,,,,,,,,,,,,,,,,,,,,,,,,,,,,,,,,,,,,,,,,,,,,,,,,,,,,,,,,
,,,,,,,,,,,,,,,,,2022-06-17_13h04.53.015,Session1,2020.2.10,Win32,60,,,,,,,,,,,,,,,,0,0,0,0,1,,,,,,,,,,,,,,,,,,,,,,,,,,,,,,,,,,,,,,,,,,,,,,,,,,,,,,
,,space,1.201,,,,,,,,,,,,,,2022-06-17_13h04.53.015,Session1,2020.2.10,Win32,60,,,,,,,,,,,,,,,,,,,,,space,11.84,space,29.635,space,7.549,space,1.429,0,0,0,0,1,Practice/Seagull_A.wav,2,3,NEW,Practice,,,,,,,,,,,,,,,,,,,,,,,,,,,,,,,,,,,,
,,,,,,,,,,,,,,,,,2022-06-17_13h04.53.015,Session1,2020.2.10,Win32,60,,,,,,,,,,,,,,,,,,,,,,,,,space,2.879,space,0.685,0,1,1,1,1,Practice/Skid_B.wav,2,3,NEW,Practice,,,,,,,,,,,,,,,,,,,,,,,,,,,,,,,,,,,,
,,,,,,,,,,,,,,,,,2022-06-17_13h04.53.015,Session1,2020.2.10,Win32,60,,,,,,,,,,,,,,,,,,,,,,,,,space,2.514,space,0.809,0,2,2,2,1,Practice/Seagull_A.wav,1,1,OLD,Practice,,,,,,,,,,,,,,,,,,,,,,,,,,,,,,,,,,,,
,,,,,,,,,,,,,,,,,2022-06-17_13h04.53.015,Session1,2020.2.10,Win32,60,,,,,,,,,,,,,,,,,,,,,,,,,space,2.647,space,0.746,0,3,3,3,1,Practice/Gargle_A.wav,2,3,NEW,Practice,,,,,,,,,,,,,,,,,,,,,,,,,,,,,,,,,,,,
,,,,,,,,,,,,,,,,,2022-06-17_13h04.53.015,Session1,2020.2.10,Win32,60,,,,,,,,,,,,,,,,,,,,,,,,,space,4.379,space,17.104,0,4,4,4,1,Practice/Gargle_B.wav,2,2,SIMILAR,Practice,,,,,,,,,,,,,,,,,,,,,,,,,,,,,,,,,,,,
,,,,,,,,,,,,,,,,,2022-06-17_13h04.53.015,Session1,2020.2.10,Win32,60,,,,,,,,,,,,,,,,,,,,,,,,,,,,,,,,,,SoundMST/Buzz.wav,2,3,NEW,A,space,7.223,2,1,0.002,0,0,0,0,1,,,,,,,,,,,,,,,,,,,,,,,,,,
,,,,,,,,,,,,,,,,,2022-06-17_13h04.53.015,Session1,2020.2.10,Win32,60,,,,,,,,,,,,,,,,,,,,,,,,,,,,,,,,,,SoundMST/Writing_A.wav,2,3,NEW,A,,,2,1,0.437,0,1,1,1,1,,,,,,,,,,,,,,,,,,,,,,,,,,
,,,,,,,,,,,,,,,,,2022-06-17_13h04.53.015,Session1,2020.2.10,Win32,60,,,,,,,,,,,,,,,,,,,,,,,,,,,,,,,,,,SoundMST/CarStart_E.wav,2,3,NEW,A,,,2,1,0.376,0,2,2,2,1,,,,,,,,,,,,,,,,,,,,,,,,,,
,,,,,,,,,,,,,,,,,2022-06-17_13h04.53.015,Session1,2020.2.10,Win32,60,,,,,,,,,,,,,,,,,,,,,,,,,,,,,,,,,,SoundMST/Elephant_C.wav,2,3,NEW,A,,,2,1,0.031,0,3,3,3,1,,,,,,,,,,,,,,,,,,,,,,,,,,
,,,,,,,,,,,,,,,,,2022-06-17_13h04.53.015,Session1,2020.2.10,Win32,60,,,,,,,,,,,,,,,,,,,,,,,,,,,,,,,,,,SoundMST/Puff_A.wav,2,3,NEW,A,,,2,1,0.492,0,4,4,4,1,,,,,,,,,,,,,,,,,,,,,,,,,,
,,,,,,,,,,,,,,,,,2022-06-17_13h04.53.015,Session1,2020.2.10,Win32,60,,,,,,,,,,,,,,,,,,,,,,,,,,,,,,,,,,SoundMST/Trumpet_B.wav,2,3,NEW,A,,,2,1,0.6,0,5,5,5,1,,,,,,,,,,,,,,,,,,,,,,,,,,
,,,,,,,,,,,,,,,,,2022-06-17_13h04.53.015,Session1,2020.2.10,Win32,60,,,,,,,,,,,,,,,,,,,,,,,,,,,,,,,,,,SoundMST/Heartbeat.wav,2,3,NEW,A,,,2,1,0.468,0,6,6,6,1,,,,,,,,,,,,,,,,,,,,,,,,,,
,,,,,,,,,,,,,,,,,2022-06-17_13h04.53.015,Session1,2020.2.10,Win32,60,,,,,,,,,,,,,,,,,,,,,,,,,,,,,,,,,,SoundMST/Piano_D.wav,2,3,NEW,A,,,2,1,0.323,0,7,7,7,1,,,,,,,,,,,,,,,,,,,,,,,,,,
,,,,,,,,,,,,,,,,,2022-06-17_13h04.53.015,Session1,2020.2.10,Win32,60,,,,,,,,,,,,,,,,,,,,,,,,,,,,,,,,,,SoundMST/Cello.wav,2,3,NEW,A,,,2,1,0.289,0,8,8,8,1,,,,,,,,,,,,,,,,,,,,,,,,,,
,,,,,,,,,,,,,,,,,2022-06-17_13h04.53.015,Session1,2020.2.10,Win32,60,,,,,,,,,,,,,,,,,,,,,,,,,,,,,,,,,,SoundMST/Writing_C.wav,2,2,SIMILAR,A,,,1,0,1.168,0,9,9,9,1,,,,,,,,,,,,,,,,,,,,,,,,,,
,,,,,,,,,,,,,,,,,2022-06-17_13h04.53.015,Session1,2020.2.10,Win32,60,,,,,,,,,,,,,,,,,,,,,,,,,,,,,,,,,,SoundMST/Buzz.wav,1,1,OLD,A,,,1,1,1.284,0,10,10,10,1,,,,,,,,,,,,,,,,,,,,,,,,,,
,,,,,,,,,,,,,,,,,2022-06-17_13h04.53.015,Session1,2020.2.10,Win32,60,,,,,,,,,,,,,,,,,,,,,,,,,,,,,,,,,,SoundMST/Steam.wav,2,3,NEW,A,,,2,1,0.273,0,11,11,11,1,,,,,,,,,,,,,,,,,,,,,,,,,,
,,,,,,,,,,,,,,,,,2022-06-17_13h04.53.015,Session1,2020.2.10,Win32,60,,,,,,,,,,,,,,,,,,,,,,,,,,,,,,,,,,SoundMST/Cuckoo_A.wav,2,3,NEW,A,,,2,1,0.126,0,12,12,12,1,,,,,,,,,,,,,,,,,,,,,,,,,,
,,,,,,,,,,,,,,,,,2022-06-17_13h04.53.015,Session1,2020.2.10,Win32,60,,,,,,,,,,,,,,,,,,,,,,,,,,,,,,,,,,SoundMST/Chicken_A.wav,2,3,NEW,A,,,2,1,0.818,0,13,13,13,1,,,,,,,,,,,,,,,,,,,,,,,,,,
,,,,,,,,,,,,,,,,,2022-06-17_13h04.53.015,Session1,2020.2.10,Win32,60,,,,,,,,,,,,,,,,,,,,,,,,,,,,,,,,,,SoundMST/Goat_C.wav,2,3,NEW,A,,,2,1,0.609,0,14,14,14,1,,,,,,,,,,,,,,,,,,,,,,,,,,
,,,,,,,,,,,,,,,,,2022-06-17_13h04.53.015,Session1,2020.2.10,Win32,60,,,,,,,,,,,,,,,,,,,,,,,,,,,,,,,,,,SoundMST/CarStart_D.wav,2,2,SIMILAR,A,,,2,1,0.425,0,15,15,15,1,,,,,,,,,,,,,,,,,,,,,,,,,,
,,,,,,,,,,,,,,,,,2022-06-17_13h04.53.015,Session1,2020.2.10,Win32,60,,,,,,,,,,,,,,,,,,,,,,,,,,,,,,,,,,SoundMST/Duck_B.wav,2,3,NEW,A,,,2,1,0.873,0,16,16,16,1,,,,,,,,,,,,,,,,,,,,,,,,,,
,,,,,,,,,,,,,,,,,2022-06-17_13h04.53.015,Session1,2020.2.10,Win32,60,,,,,,,,,,,,,,,,,,,,,,,,,,,,,,,,,,SoundMST/Trumpet_C.wav,2,2,SIMILAR,A,,,2,1,0.735,0,17,17,17,1,,,,,,,,,,,,,,,,,,,,,,,,,,
,,,,,,,,,,,,,,,,,2022-06-17_13h04.53.015,Session1,2020.2.10,Win32,60,,,,,,,,,,,,,,,,,,,,,,,,,,,,,,,,,,SoundMST/Cello.wav,1,1,OLD,A,,,2,0,0.767,0,18,18,18,1,,,,,,,,,,,,,,,,,,,,,,,,,,
,,,,,,,,,,,,,,,,,2022-06-17_13h04.53.015,Session1,2020.2.10,Win32,60,,,,,,,,,,,,,,,,,,,,,,,,,,,,,,,,,,SoundMST/Camera.wav,2,3,NEW,A,,,2,1,1.716,0,19,19,19,1,,,,,,,,,,,,,,,,,,,,,,,,,,
,,,,,,,,,,,,,,,,,2022-06-17_13h04.53.015,Session1,2020.2.10,Win32,60,,,,,,,,,,,,,,,,,,,,,,,,,,,,,,,,,,SoundMST/Puff_A.wav,1,1,OLD,A,,,1,1,0.936,0,20,20,20,1,,,,,,,,,,,,,,,,,,,,,,,,,,
,,,,,,,,,,,,,,,,,2022-06-17_13h04.53.015,Session1,2020.2.10,Win32,60,,,,,,,,,,,,,,,,,,,,,,,,,,,,,,,,,,SoundMST/Heartbeat.wav,1,1,OLD,A,,,1,1,1.201,0,21,21,21,1,,,,,,,,,,,,,,,,,,,,,,,,,,
,,,,,,,,,,,,,,,,,2022-06-17_13h04.53.015,Session1,2020.2.10,Win32,60,,,,,,,,,,,,,,,,,,,,,,,,,,,,,,,,,,SoundMST/Phone_F.wav,2,3,NEW,A,,,2,1,0.051,0,22,22,22,1,,,,,,,,,,,,,,,,,,,,,,,,,,
,,,,,,,,,,,,,,,,,2022-06-17_13h04.53.015,Session1,2020.2.10,Win32,60,,,,,,,,,,,,,,,,,,,,,,,,,,,,,,,,,,SoundMST/Piano_C.wav,2,2,SIMILAR,A,,,2,1,0.555,0,23,23,23,1,,,,,,,,,,,,,,,,,,,,,,,,,,
,,,,,,,,,,,,,,,,,2022-06-17_13h04.53.015,Session1,2020.2.10,Win32,60,,,,,,,,,,,,,,,,,,,,,,,,,,,,,,,,,,SoundMST/Snore_C.wav,2,3,NEW,A,,,2,1,0.519,0,24,24,24,1,,,,,,,,,,,,,,,,,,,,,,,,,,
,,,,,,,,,,,,,,,,,2022-06-17_13h04.53.015,Session1,2020.2.10,Win32,60,,,,,,,,,,,,,,,,,,,,,,,,,,,,,,,,,,SoundMST/Chicken_A.wav,1,1,OLD,A,,,2,0,1.957,0,25,25,25,1,,,,,,,,,,,,,,,,,,,,,,,,,,
,,,,,,,,,,,,,,,,,2022-06-17_13h04.53.015,Session1,2020.2.10,Win32,60,,,,,,,,,,,,,,,,,,,,,,,,,,,,,,,,,,SoundMST/Mosquito_B.wav,2,3,NEW,A,,,2,1,0.671,0,26,26,26,1,,,,,,,,,,,,,,,,,,,,,,,,,,
,,,,,,,,,,,,,,,,,2022-06-17_13h04.53.015,Session1,2020.2.10,Win32,60,,,,,,,,,,,,,,,,,,,,,,,,,,,,,,,,,,SoundMST/Cough_I.wav,2,3,NEW,A,,,2,1,0.586,0,27,27,27,1,,,,,,,,,,,,,,,,,,,,,,,,,,
,,,,,,,,,,,,,,,,,2022-06-17_13h04.53.015,Session1,2020.2.10,Win32,60,,,,,,,,,,,,,,,,,,,,,,,,,,,,,,,,,,SoundMST/Elephant_A.wav,2,2,SIMILAR,A,,,1,0,1.545,0,28,28,28,1,,,,,,,,,,,,,,,,,,,,,,,,,,
,,,,,,,,,,,,,,,,,2022-06-17_13h04.53.015,Session1,2020.2.10,Win32,60,,,,,,,,,,,,,,,,,,,,,,,,,,,,,,,,,,SoundMST/Cuckoo_A.wav,1,1,OLD,A,,,1,1,0.452,0,29,29,29,1,,,,,,,,,,,,,,,,,,,,,,,,,,
,,,,,,,,,,,,,,,,,2022-06-17_13h04.53.015,Session1,2020.2.10,Win32,60,,,,,,,,,,,,,,,,,,,,,,,,,,,,,,,,,,SoundMST/Baby_C.wav,2,3,NEW,A,,,2,1,1.002,0,30,30,30,1,,,,,,,,,,,,,,,,,,,,,,,,,,
,,,,,,,,,,,,,,,,,2022-06-17_13h04.53.015,Session1,2020.2.10,Win32,60,,,,,,,,,,,,,,,,,,,,,,,,,,,,,,,,,,SoundMST/Duck_A.wav,2,2,SIMILAR,A,,,2,1,1.684,0,31,31,31,1,,,,,,,,,,,,,,,,,,,,,,,,,,
,,,,,,,,,,,,,,,,,2022-06-17_13h04.53.015,Session1,2020.2.10,Win32,60,,,,,,,,,,,,,,,,,,,,,,,,,,,,,,,,,,SoundMST/Chime_D.wav,2,3,NEW,A,,,2,1,0.401,0,32,32,32,1,,,,,,,,,,,,,,,,,,,,,,,,,,
,,,,,,,,,,,,,,,,,2022-06-17_13h04.53.015,Session1,2020.2.10,Win32,60,,,,,,,,,,,,,,,,,,,,,,,,,,,,,,,,,,SoundMST/Faucet_A.wav,2,3,NEW,A,,,2,1,0.692,0,33,33,33,1,,,,,,,,,,,,,,,,,,,,,,,,,,
,,,,,,,,,,,,,,,,,2022-06-17_13h04.53.015,Session1,2020.2.10,Win32,60,,,,,,,,,,,,,,,,,,,,,,,,,,,,,,,,,,SoundMST/Camera.wav,1,1,OLD,A,,,1,1,1.024,0,34,34,34,1,,,,,,,,,,,,,,,,,,,,,,,,,,
,,,,,,,,,,,,,,,,,2022-06-17_13h04.53.015,Session1,2020.2.10,Win32,60,,,,,,,,,,,,,,,,,,,,,,,,,,,,,,,,,,SoundMST/Bird_C.wav,2,3,NEW,A,,,2,1,1.058,0,35,35,35,1,,,,,,,,,,,,,,,,,,,,,,,,,,
,,,,,,,,,,,,,,,,,2022-06-17_13h04.53.015,Session1,2020.2.10,Win32,60,,,,,,,,,,,,,,,,,,,,,,,,,,,,,,,,,,SoundMST/Steam.wav,1,1,OLD,A,,,1,1,0.622,0,36,36,36,1,,,,,,,,,,,,,,,,,,,,,,,,,,
,,,,,,,,,,,,,,,,,2022-06-17_13h04.53.015,Session1,2020.2.10,Win32,60,,,,,,,,,,,,,,,,,,,,,,,,,,,,,,,,,,SoundMST/Phone_E.wav,2,2,SIMILAR,A,,,1,0,0.357,0,37,37,37,1,,,,,,,,,,,,,,,,,,,,,,,,,,
,,,,,,,,,,,,,,,,,2022-06-17_13h04.53.015,Session1,2020.2.10,Win32,60,,,,,,,,,,,,,,,,,,,,,,,,,,,,,,,,,,SoundMST/Snore_E.wav,2,2,SIMILAR,A,,,2,1,1.033,0,38,38,38,1,,,,,,,,,,,,,,,,,,,,,,,,,,
,,,,,,,,,,,,,,,,,2022-06-17_13h04.53.015,Session1,2020.2.10,Win32,60,,,,,,,,,,,,,,,,,,,,,,,,,,,,,,,,,,SoundMST/Goat_C.wav,1,1,OLD,A,,,1,1,0.826,0,39,39,39,1,,,,,,,,,,,,,,,,,,,,,,,,,,
,,,,,,,,,,,,,,,,,2022-06-17_13h04.53.015,Session1,2020.2.10,Win32,60,,,,,,,,,,,,,,,,,,,,,,,,,,,,,,,,,,SoundMST/Chime_A.wav,2,2,SIMILAR,A,,,1,0,0.618,0,40,40,40,1,,,,,,,,,,,,,,,,,,,,,,,,,,
,,,,,,,,,,,,,,,,,2022-06-17_13h04.53.015,Session1,2020.2.10,Win32,60,,,,,,,,,,,,,,,,,,,,,,,,,,,,,,,,,,SoundMST/Faucet_C.wav,2,2,SIMILAR,A,,,1,0,0.301,0,41,41,41,1,,,,,,,,,,,,,,,,,,,,,,,,,,
,,,,,,,,,,,,,,,,,2022-06-17_13h04.53.015,Session1,2020.2.10,Win32,60,,,,,,,,,,,,,,,,,,,,,,,,,,,,,,,,,,SoundMST/Bullfrog.wav,2,3,NEW,A,,,2,1,0.438,0,42,42,42,1,,,,,,,,,,,,,,,,,,,,,,,,,,
,,,,,,,,,,,,,,,,,2022-06-17_13h04.53.015,Session1,2020.2.10,Win32,60,,,,,,,,,,,,,,,,,,,,,,,,,,,,,,,,,,SoundMST/Mosquito_B.wav,1,1,OLD,A,,,1,1,1.602,0,43,43,43,1,,,,,,,,,,,,,,,,,,,,,,,,,,
,,,,,,,,,,,,,,,,,2022-06-17_13h04.53.015,Session1,2020.2.10,Win32,60,,,,,,,,,,,,,,,,,,,,,,,,,,,,,,,,,,SoundMST/Guitar_B.wav,2,3,NEW,A,,,2,1,0.62,0,44,44,44,1,,,,,,,,,,,,,,,,,,,,,,,,,,
,,,,,,,,,,,,,,,,,2022-06-17_13h04.53.015,Session1,2020.2.10,Win32,60,,,,,,,,,,,,,,,,,,,,,,,,,,,,,,,,,,SoundMST/Baby_B.wav,2,2,SIMILAR,A,,,2,1,0.41,0,45,45,45,1,,,,,,,,,,,,,,,,,,,,,,,,,,
,,,,,,,,,,,,,,,,,2022-06-17_13h04.53.015,Session1,2020.2.10,Win32,60,,,,,,,,,,,,,,,,,,,,,,,,,,,,,,,,,,SoundMST/Sleighbells_B.wav,2,3,NEW,A,,,2,1,0.236,0,46,46,46,1,,,,,,,,,,,,,,,,,,,,,,,,,,
,,,,,,,,,,,,,,,,,2022-06-17_13h04.53.015,Session1,2020.2.10,Win32,60,,,,,,,,,,,,,,,,,,,,,,,,,,,,,,,,,,SoundMST/Cat_A.wav,2,3,NEW,A,,,2,1,1.553,0,47,47,47,1,,,,,,,,,,,,,,,,,,,,,,,,,,
,,,,,,,,,,,,,,,,,2022-06-17_13h04.53.015,Session1,2020.2.10,Win32,60,,,,,,,,,,,,,,,,,,,,,,,,,,,,,,,,,,SoundMST/Airhorn.wav,2,3,NEW,A,,,2,1,0.699,0,48,48,48,1,,,,,,,,,,,,,,,,,,,,,,,,,,
,,,,,,,,,,,,,,,,,2022-06-17_13h04.53.015,Session1,2020.2.10,Win32,60,,,,,,,,,,,,,,,,,,,,,,,,,,,,,,,,,,SoundMST/Bird_A.wav,2,2,SIMILAR,A,,,2,1,0.851,0,49,49,49,1,,,,,,,,,,,,,,,,,,,,,,,,,,
,,,,,,,,,,,,,,,,,2022-06-17_13h04.53.015,Session1,2020.2.10,Win32,60,,,,,,,,,,,,,,,,,,,,,,,,,,,,,,,,,,SoundMST/Laugh_A.wav,2,3,NEW,A,,,2,1,0.618,0,50,50,50,1,,,,,,,,,,,,,,,,,,,,,,,,,,
,,,,,,,,,,,,,,,,,2022-06-17_13h04.53.015,Session1,2020.2.10,Win32,60,,,,,,,,,,,,,,,,,,,,,,,,,,,,,,,,,,SoundMST/Dog_H.wav,2,3,NEW,A,,,2,1,0.571,0,51,51,51,1,,,,,,,,,,,,,,,,,,,,,,,,,,
,,,,,,,,,,,,,,,,,2022-06-17_13h04.53.015,Session1,2020.2.10,Win32,60,,,,,,,,,,,,,,,,,,,,,,,,,,,,,,,,,,SoundMST/Cough_J.wav,2,2,SIMILAR,A,,,2,1,1.325,0,52,52,52,1,,,,,,,,,,,,,,,,,,,,,,,,,,
,,,,,,,,,,,,,,,,,2022-06-17_13h04.53.015,Session1,2020.2.10,Win32,60,,,,,,,,,,,,,,,,,,,,,,,,,,,,,,,,,,SoundMST/Donkey.wav,2,3,NEW,A,,,2,1,0.684,0,53,53,53,1,,,,,,,,,,,,,,,,,,,,,,,,,,
,,,,,,,,,,,,,,,,,2022-06-17_13h04.53.015,Session1,2020.2.10,Win32,60,,,,,,,,,,,,,,,,,,,,,,,,,,,,,,,,,,SoundMST/Slurp.wav,2,3,NEW,A,,,2,1,0.766,0,54,54,54,1,,,,,,,,,,,,,,,,,,,,,,,,,,
,,,,,,,,,,,,,,,,,2022-06-17_13h04.53.015,Session1,2020.2.10,Win32,60,,,,,,,,,,,,,,,,,,,,,,,,,,,,,,,,,,SoundMST/Airhorn.wav,1,1,OLD,A,,,1,1,0.534,0,55,55,55,1,,,,,,,,,,,,,,,,,,,,,,,,,,
,,,,,,,,,,,,,,,,,2022-06-17_13h04.53.015,Session1,2020.2.10,Win32,60,,,,,,,,,,,,,,,,,,,,,,,,,,,,,,,,,,SoundMST/Cat_A.wav,1,1,OLD,A,,,1,1,0.771,0,56,56,56,1,,,,,,,,,,,,,,,,,,,,,,,,,,
,,,,,,,,,,,,,,,,,2022-06-17_13h04.53.015,Session1,2020.2.10,Win32,60,,,,,,,,,,,,,,,,,,,,,,,,,,,,,,,,,,SoundMST/Hammer_A.wav,2,3,NEW,A,,,2,1,0.884,0,57,57,57,1,,,,,,,,,,,,,,,,,,,,,,,,,,
,,,,,,,,,,,,,,,,,2022-06-17_13h04.53.015,Session1,2020.2.10,Win32,60,,,,,,,,,,,,,,,,,,,,,,,,,,,,,,,,,,SoundMST/Guitar_B.wav,1,1,OLD,A,,,1,1,0.487,0,58,58,58,1,,,,,,,,,,,,,,,,,,,,,,,,,,
,,,,,,,,,,,,,,,,,2022-06-17_13h04.53.015,Session1,2020.2.10,Win32,60,,,,,,,,,,,,,,,,,,,,,,,,,,,,,,,,,,SoundMST/Howl.wav,2,3,NEW,A,,,2,1,0.707,0,59,59,59,1,,,,,,,,,,,,,,,,,,,,,,,,,,
,,,,,,,,,,,,,,,,,2022-06-17_13h04.53.015,Session1,2020.2.10,Win32,60,,,,,,,,,,,,,,,,,,,,,,,,,,,,,,,,,,SoundMST/Bullfrog.wav,1,1,OLD,A,,,1,1,0.434,0,60,60,60,1,,,,,,,,,,,,,,,,,,,,,,,,,,
,,,,,,,,,,,,,,,,,2022-06-17_13h04.53.015,Session1,2020.2.10,Win32,60,,,,,,,,,,,,,,,,,,,,,,,,,,,,,,,,,,SoundMST/Printer.wav,2,3,NEW,A,,,2,1,1.071,0,61,61,61,1,,,,,,,,,,,,,,,,,,,,,,,,,,
,,,,,,,,,,,,,,,,,2022-06-17_13h04.53.015,Session1,2020.2.10,Win32,60,,,,,,,,,,,,,,,,,,,,,,,,,,,,,,,,,,SoundMST/Horse.wav,2,3,NEW,A,,,2,1,1.042,0,62,62,62,1,,,,,,,,,,,,,,,,,,,,,,,,,,
,,,,,,,,,,,,,,,,,2022-06-17_13h04.53.015,Session1,2020.2.10,Win32,60,,,,,,,,,,,,,,,,,,,,,,,,,,,,,,,,,,SoundMST/Airplane_B.wav,2,3,NEW,A,,,2,1,0.742,0,63,63,63,1,,,,,,,,,,,,,,,,,,,,,,,,,,
,,,,,,,,,,,,,,,,,2022-06-17_13h04.53.015,Session1,2020.2.10,Win32,60,,,,,,,,,,,,,,,,,,,,,,,,,,,,,,,,,,SoundMST/Pour_F.wav,2,3,NEW,A,,,1,0,0.99,0,64,64,64,1,,,,,,,,,,,,,,,,,,,,,,,,,,
,,,,,,,,,,,,,,,,,2022-06-17_13h04.53.015,Session1,2020.2.10,Win32,60,,,,,,,,,,,,,,,,,,,,,,,,,,,,,,,,,,SoundMST/Dog_I.wav,2,2,SIMILAR,A,,,2,1,0.541,0,65,65,65,1,,,,,,,,,,,,,,,,,,,,,,,,,,
,,,,,,,,,,,,,,,,,2022-06-17_13h04.53.015,Session1,2020.2.10,Win32,60,,,,,,,,,,,,,,,,,,,,,,,,,,,,,,,,,,SoundMST/Donkey.wav,1,1,OLD,A,,,1,1,0.753,0,66,66,66,1,,,,,,,,,,,,,,,,,,,,,,,,,,
,,,,,,,,,,,,,,,,,2022-06-17_13h04.53.015,Session1,2020.2.10,Win32,60,,,,,,,,,,,,,,,,,,,,,,,,,,,,,,,,,,SoundMST/Slurp.wav,1,1,OLD,A,,,1,1,0.708,0,67,67,67,1,,,,,,,,,,,,,,,,,,,,,,,,,,
,,,,,,,,,,,,,,,,,2022-06-17_13h04.53.015,Session1,2020.2.10,Win32,60,,,,,,,,,,,,,,,,,,,,,,,,,,,,,,,,,,SoundMST/HairDryer_A.wav,2,3,NEW,A,,,2,1,0.557,0,68,68,68,1,,,,,,,,,,,,,,,,,,,,,,,,,,
,,,,,,,,,,,,,,,,,2022-06-17_13h04.53.015,Session1,2020.2.10,Win32,60,,,,,,,,,,,,,,,,,,,,,,,,,,,,,,,,,,SoundMST/Thunder_A.wav,2,3,NEW,A,,,2,1,0.818,0,69,69,69,1,,,,,,,,,,,,,,,,,,,,,,,,,,
,,,,,,,,,,,,,,,,,2022-06-17_13h04.53.015,Session1,2020.2.10,Win32,60,,,,,,,,,,,,,,,,,,,,,,,,,,,,,,,,,,SoundMST/Sleighbells_B.wav,1,1,OLD,A,,,1,1,0.889,0,70,70,70,1,,,,,,,,,,,,,,,,,,,,,,,,,,
,,,,,,,,,,,,,,,,,2022-06-17_13h04.53.015,Session1,2020.2.10,Win32,60,,,,,,,,,,,,,,,,,,,,,,,,,,,,,,,,,,SoundMST/Laugh_D.wav,2,2,SIMILAR,A,,,2,1,0.84,0,71,71,71,1,,,,,,,,,,,,,,,,,,,,,,,,,,
,,,,,,,,,,,,,,,,,2022-06-17_13h04.53.015,Session1,2020.2.10,Win32,60,,,,,,,,,,,,,,,,,,,,,,,,,,,,,,,,,,SoundMST/Toilet_B.wav,2,3,NEW,A,,,1,0,0.439,0,72,72,72,1,,,,,,,,,,,,,,,,,,,,,,,,,,
,,,,,,,,,,,,,,,,,2022-06-17_13h04.53.015,Session1,2020.2.10,Win32,60,,,,,,,,,,,,,,,,,,,,,,,,,,,,,,,,,,SoundMST/Howl.wav,1,1,OLD,A,,,1,1,1.151,0,73,73,73,1,,,,,,,,,,,,,,,,,,,,,,,,,,
,,,,,,,,,,,,,,,,,2022-06-17_13h04.53.015,Session1,2020.2.10,Win32,60,,,,,,,,,,,,,,,,,,,,,,,,,,,,,,,,,,SoundMST/Footsteps_C.wav,2,3,NEW,A,,,2,1,1.15,0,74,74,74,1,,,,,,,,,,,,,,,,,,,,,,,,,,
,,,,,,,,,,,,,,,,,2022-06-17_13h04.53.015,Session1,2020.2.10,Win32,60,,,,,,,,,,,,,,,,,,,,,,,,,,,,,,,,,,SoundMST/Cup.wav,2,3,NEW,A,,,2,1,1.684,0,75,75,75,1,,,,,,,,,,,,,,,,,,,,,,,,,,
,,,,,,,,,,,,,,,,,2022-06-17_13h04.53.015,Session1,2020.2.10,Win32,60,,,,,,,,,,,,,,,,,,,,,,,,,,,,,,,,,,SoundMST/Pour_C.wav,2,2,SIMILAR,A,,,1,0,0.938,0,76,76,76,1,,,,,,,,,,,,,,,,,,,,,,,,,,
,,,,,,,,,,,,,,,,,2022-06-17_13h04.53.015,Session1,2020.2.10,Win32,60,,,,,,,,,,,,,,,,,,,,,,,,,,,,,,,,,,SoundMST/Sneeze_B.wav,2,3,NEW,A,,,2,1,1.201,0,77,77,77,1,,,,,,,,,,,,,,,,,,,,,,,,,,
,,,,,,,,,,,,,,,,,2022-06-17_13h04.53.015,Session1,2020.2.10,Win32,60,,,,,,,,,,,,,,,,,,,,,,,,,,,,,,,,,,SoundMST/Airplane_B.wav,1,1,OLD,A,,,1,1,0.719,0,78,78,78,1,,,,,,,,,,,,,,,,,,,,,,,,,,
,,,,,,,,,,,,,,,,,2022-06-17_13h04.53.015,Session1,2020.2.10,Win32,60,,,,,,,,,,,,,,,,,,,,,,,,,,,,,,,,,,SoundMST/HairDryer_A.wav,1,1,OLD,A,,,1,1,0.874,0,79,79,79,1,,,,,,,,,,,,,,,,,,,,,,,,,,
,,,,,,,,,,,,,,,,,2022-06-17_13h04.53.015,Session1,2020.2.10,Win32,60,,,,,,,,,,,,,,,,,,,,,,,,,,,,,,,,,,SoundMST/Hammer_A.wav,1,1,OLD,A,,,1,1,0.835,0,80,80,80,1,,,,,,,,,,,,,,,,,,,,,,,,,,
,,,,,,,,,,,,,,,,,2022-06-17_13h04.53.015,Session1,2020.2.10,Win32,60,,,,,,,,,,,,,,,,,,,,,,,,,,,,,,,,,,SoundMST/Printer.wav,1,1,OLD,A,,,1,1,0.556,0,81,81,81,1,,,,,,,,,,,,,,,,,,,,,,,,,,
,,,,,,,,,,,,,,,,,2022-06-17_13h04.53.015,Session1,2020.2.10,Win32,60,,,,,,,,,,,,,,,,,,,,,,,,,,,,,,,,,,SoundMST/Thunder_A.wav,1,1,OLD,A,,,2,0,0.922,0,82,82,82,1,,,,,,,,,,,,,,,,,,,,,,,,,,
,,,,,,,,,,,,,,,,,2022-06-17_13h04.53.015,Session1,2020.2.10,Win32,60,,,,,,,,,,,,,,,,,,,,,,,,,,,,,,,,,,SoundMST/Cow.wav,2,3,NEW,A,,,1,0,0.987,0,83,83,83,1,,,,,,,,,,,,,,,,,,,,,,,,,,
,,,,,,,,,,,,,,,,,2022-06-17_13h04.53.015,Session1,2020.2.10,Win32,60,,,,,,,,,,,,,,,,,,,,,,,,,,,,,,,,,,SoundMST/Cup.wav,1,1,OLD,A,,,1,1,0.984,0,84,84,84,1,,,,,,,,,,,,,,,,,,,,,,,,,,
,,,,,,,,,,,,,,,,,2022-06-17_13h04.53.015,Session1,2020.2.10,Win32,60,,,,,,,,,,,,,,,,,,,,,,,,,,,,,,,,,,SoundMST/Growl_H.wav,2,3,NEW,A,,,2,1,0.733,0,85,85,85,1,,,,,,,,,,,,,,,,,,,,,,,,,,
,,,,,,,,,,,,,,,,,2022-06-17_13h04.53.015,Session1,2020.2.10,Win32,60,,,,,,,,,,,,,,,,,,,,,,,,,,,,,,,,,,SoundMST/Horse.wav,1,1,OLD,A,,,1,1,0.701,0,86,86,86,1,,,,,,,,,,,,,,,,,,,,,,,,,,
,,,,,,,,,,,,,,,,,2022-06-17_13h04.53.015,Session1,2020.2.10,Win32,60,,,,,,,,,,,,,,,,,,,,,,,,,,,,,,,,,,SoundMST/Footsteps_F.wav,2,2,SIMILAR,A,,,2,1,1.006,0,87,87,87,1,,,,,,,,,,,,,,,,,,,,,,,,,,
,,,,,,,,,,,,,,,,,2022-06-17_13h04.53.015,Session1,2020.2.10,Win32,60,,,,,,,,,,,,,,,,,,,,,,,,,,,,,,,,,,SoundMST/DialTone.wav,2,3,NEW,A,,,2,1,1.72,0,88,88,88,1,,,,,,,,,,,,,,,,,,,,,,,,,,
,,,,,,,,,,,,,,,,,2022-06-17_13h04.53.015,Session1,2020.2.10,Win32,60,,,,,,,,,,,,,,,,,,,,,,,,,,,,,,,,,,SoundMST/Sneeze_B.wav,1,1,OLD,A,,,1,1,1.334,0,89,89,89,1,,,,,,,,,,,,,,,,,,,,,,,,,,
,,,,,,,,,,,,,,,,,2022-06-17_13h04.53.015,Session1,2020.2.10,Win32,60,,,,,,,,,,,,,,,,,,,,,,,,,,,,,,,,,,SoundMST/Typing.wav,2,3,NEW,A,,,2,1,1.541,0,90,90,90,1,,,,,,,,,,,,,,,,,,,,,,,,,,
,,,,,,,,,,,,,,,,,2022-06-17_13h04.53.015,Session1,2020.2.10,Win32,60,,,,,,,,,,,,,,,,,,,,,,,,,,,,,,,,,,SoundMST/Clap_A.wav,2,3,NEW,A,,,2,1,0.902,0,91,91,91,1,,,,,,,,,,,,,,,,,,,,,,,,,,
,,,,,,,,,,,,,,,,,2022-06-17_13h04.53.015,Session1,2020.2.10,Win32,60,,,,,,,,,,,,,,,,,,,,,,,,,,,,,,,,,,SoundMST/Cow.wav,1,1,OLD,A,,,1,1,1.149,0,92,92,92,1,,,,,,,,,,,,,,,,,,,,,,,,,,
,,,,,,,,,,,,,,,,,2022-06-17_13h04.53.015,Session1,2020.2.10,Win32,60,,,,,,,,,,,,,,,,,,,,,,,,,,,,,,,,,,SoundMST/Droplet_B.wav,2,3,NEW,A,,,2,1,1.285,0,93,93,93,1,,,,,,,,,,,,,,,,,,,,,,,,,,
,,,,,,,,,,,,,,,,,2022-06-17_13h04.53.015,Session1,2020.2.10,Win32,60,,,,,,,,,,,,,,,,,,,,,,,,,,,,,,,,,,SoundMST/Toilet_B.wav,1,1,OLD,A,,,1,1,0.769,0,94,94,94,1,,,,,,,,,,,,,,,,,,,,,,,,,,
,,,,,,,,,,,,,,,,,2022-06-17_13h04.53.015,Session1,2020.2.10,Win32,60,,,,,,,,,,,,,,,,,,,,,,,,,,,,,,,,,,SoundMST/Wind_B.wav,2,3,NEW,A,,,2,1,0.634,0,95,95,95,1,,,,,,,,,,,,,,,,,,,,,,,,,,
,,,,,,,,,,,,,,,,,2022-06-17_13h04.53.015,Session1,2020.2.10,Win32,60,,,,,,,,,,,,,,,,,,,,,,,,,,,,,,,,,,SoundMST/Whistle_B.wav,2,3,NEW,A,,,2,1,1.968,0,96,96,96,1,,,,,,,,,,,,,,,,,,,,,,,,,,
,,,,,,,,,,,,,,,,,2022-06-17_13h04.53.015,Session1,2020.2.10,Win32,60,,,,,,,,,,,,,,,,,,,,,,,,,,,,,,,,,,SoundMST/DialTone.wav,1,1,OLD,A,,,1,1,0.975,0,97,97,97,1,,,,,,,,,,,,,,,,,,,,,,,,,,
,,,,,,,,,,,,,,,,,2022-06-17_13h04.53.015,Session1,2020.2.10,Win32,60,,,,,,,,,,,,,,,,,,,,,,,,,,,,,,,,,,SoundMST/Fireworks.wav,2,3,NEW,A,,,2,1,0.745,0,98,98,98,1,,,,,,,,,,,,,,,,,,,,,,,,,,
,,,,,,,,,,,,,,,,,2022-06-17_13h04.53.015,Session1,2020.2.10,Win32,60,,,,,,,,,,,,,,,,,,,,,,,,,,,,,,,,,,SoundMST/Growl_H.wav,1,1,OLD,A,,,1,1,0.359,0,99,99,99,1,,,,,,,,,,,,,,,,,,,,,,,,,,
,,,,,,,,,,,,,,,,,2022-06-17_13h04.53.015,Session1,2020.2.10,Win32,60,,,,,,,,,,,,,,,,,,,,,,,,,,,,,,,,,,SoundMST/Typing.wav,1,1,OLD,A,,,1,1,0.788,0,100,100,100,1,,,,,,,,,,,,,,,,,,,,,,,,,,
,,,,,,,,,,,,,,,,,2022-06-17_13h04.53.015,Session1,2020.2.10,Win32,60,,,,,,,,,,,,,,,,,,,,,,,,,,,,,,,,,,SoundMST/Bagpipe.wav,2,3,NEW,A,,,2,1,0.821,0,101,101,101,1,,,,,,,,,,,,,,,,,,,,,,,,,,
,,,,,,,,,,,,,,,,,2022-06-17_13h04.53.015,Session1,2020.2.10,Win32,60,,,,,,,,,,,,,,,,,,,,,,,,,,,,,,,,,,SoundMST/Siren_E.wav,2,3,NEW,A,,,2,1,0.751,0,102,102,102,1,,,,,,,,,,,,,,,,,,,,,,,,,,
,,,,,,,,,,,,,,,,,2022-06-17_13h04.53.015,Session1,2020.2.10,Win32,60,,,,,,,,,,,,,,,,,,,,,,,,,,,,,,,,,,SoundMST/Droplet_B.wav,1,1,OLD,A,,,1,1,0.768,0,103,103,103,1,,,,,,,,,,,,,,,,,,,,,,,,,,
,,,,,,,,,,,,,,,,,2022-06-17_13h04.53.015,Session1,2020.2.10,Win32,60,,,,,,,,,,,,,,,,,,,,,,,,,,,,,,,,,,SoundMST/Wind_B.wav,1,1,OLD,A,,,1,1,1.291,0,104,104,104,1,,,,,,,,,,,,,,,,,,,,,,,,,,
,,,,,,,,,,,,,,,,,2022-06-17_13h04.53.015,Session1,2020.2.10,Win32,60,,,,,,,,,,,,,,,,,,,,,,,,,,,,,,,,,,SoundMST/IceDrop.wav,2,3,NEW,A,,,2,1,1.483,0,105,105,105,1,,,,,,,,,,,,,,,,,,,,,,,,,,
,,,,,,,,,,,,,,,,,2022-06-17_13h04.53.015,Session1,2020.2.10,Win32,60,,,,,,,,,,,,,,,,,,,,,,,,,,,,,,,,,,SoundMST/Clap_D.wav,2,2,SIMILAR,A,,,2,1,0.908,0,106,106,106,1,,,,,,,,,,,,,,,,,,,,,,,,,,
,,,,,,,,,,,,,,,,,2022-06-17_13h04.53.015,Session1,2020.2.10,Win32,60,,,,,,,,,,,,,,,,,,,,,,,,,,,,,,,,,,SoundMST/PaperRip.wav,2,3,NEW,A,,,2,1,1.686,0,107,107,107,1,,,,,,,,,,,,,,,,,,,,,,,,,,
,,,,,,,,,,,,,,,,,2022-06-17_13h04.53.015,Session1,2020.2.10,Win32,60,,,,,,,,,,,,,,,,,,,,,,,,,,,,,,,,,,SoundMST/Chomp_A.wav,2,3,NEW,A,,,2,1,1.052,0,108,108,108,1,,,,,,,,,,,,,,,,,,,,,,,,,,
,,,,,,,,,,,,,,,,,2022-06-17_13h04.53.015,Session1,2020.2.10,Win32,60,,,,,,,,,,,,,,,,,,,,,,,,,,,,,,,,,,SoundMST/Whistle_C.wav,2,2,SIMILAR,A,,,1,0,1.481,0,109,109,109,1,,,,,,,,,,,,,,,,,,,,,,,,,,
,,,,,,,,,,,,,,,,,2022-06-17_13h04.53.015,Session1,2020.2.10,Win32,60,,,,,,,,,,,,,,,,,,,,,,,,,,,,,,,,,,SoundMST/Fireworks.wav,1,1,OLD,A,,,2,0,2.945,0,110,110,110,1,,,,,,,,,,,,,,,,,,,,,,,,,,
,,,,,,,,,,,,,,,,,2022-06-17_13h04.53.015,Session1,2020.2.10,Win32,60,,,,,,,,,,,,,,,,,,,,,,,,,,,,,,,,,,SoundMST/Crow_A.wav,2,3,NEW,A,,,2,1,0.667,0,111,111,111,1,,,,,,,,,,,,,,,,,,,,,,,,,,
,,,,,,,,,,,,,,,,,2022-06-17_13h04.53.015,Session1,2020.2.10,Win32,60,,,,,,,,,,,,,,,,,,,,,,,,,,,,,,,,,,SoundMST/Bagpipe.wav,1,1,OLD,A,,,2,0,1.16,0,112,112,112,1,,,,,,,,,,,,,,,,,,,,,,,,,,
,,,,,,,,,,,,,,,,,2022-06-17_13h04.53.015,Session1,2020.2.10,Win32,60,,,,,,,,,,,,,,,,,,,,,,,,,,,,,,,,,,SoundMST/Bowlingpins.wav,2,3,NEW,A,,,2,1,1.034,0,113,113,113,1,,,,,,,,,,,,,,,,,,,,,,,,,,
,,,,,,,,,,,,,,,,,2022-06-17_13h04.53.015,Session1,2020.2.10,Win32,60,,,,,,,,,,,,,,,,,,,,,,,,,,,,,,,,,,SoundMST/Siren_A.wav,2,2,SIMILAR,A,,,2,1,0.676,0,114,114,114,1,,,,,,,,,,,,,,,,,,,,,,,,,,
,,,,,,,,,,,,,,,,,2022-06-17_13h04.53.015,Session1,2020.2.10,Win32,60,,,,,,,,,,,,,,,,,,,,,,,,,,,,,,,,,,SoundMST/ManWhistle.wav,2,3,NEW,A,,,2,1,0.821,0,115,115,115,1,,,,,,,,,,,,,,,,,,,,,,,,,,
,,,,,,,,,,,,,,,,,2022-06-17_13h04.53.015,Session1,2020.2.10,Win32,60,,,,,,,,,,,,,,,,,,,,,,,,,,,,,,,,,,SoundMST/Coin_D.wav,2,3,NEW,A,,,2,1,1.003,0,116,116,116,1,,,,,,,,,,,,,,,,,,,,,,,,,,
,,,,,,,,,,,,,,,,,2022-06-17_13h04.53.015,Session1,2020.2.10,Win32,60,,,,,,,,,,,,,,,,,,,,,,,,,,,,,,,,,,SoundMST/PaperRip.wav,1,1,OLD,A,,,1,1,1.385,0,117,117,117,1,,,,,,,,,,,,,,,,,,,,,,,,,,
,,,,,,,,,,,,,,,,,2022-06-17_13h04.53.015,Session1,2020.2.10,Win32,60,,,,,,,,,,,,,,,,,,,,,,,,,,,,,,,,,,SoundMST/Helicopter_A.wav,2,3,NEW,A,,,2,1,0.724,0,118,118,118,1,,,,,,,,,,,,,,,,,,,,,,,,,,
,,,,,,,,,,,,,,,,,2022-06-17_13h04.53.015,Session1,2020.2.10,Win32,60,,,,,,,,,,,,,,,,,,,,,,,,,,,,,,,,,,SoundMST/Bubbles_A.wav,2,3,NEW,A,,,1,0,1.001,0,119,119,119,1,,,,,,,,,,,,,,,,,,,,,,,,,,
,,,,,,,,,,,,,,,,,2022-06-17_13h04.53.015,Session1,2020.2.10,Win32,60,,,,,,,,,,,,,,,,,,,,,,,,,,,,,,,,,,SoundMST/Chomp_C.wav,2,2,SIMILAR,A,,,2,1,0.804,0,120,120,120,1,,,,,,,,,,,,,,,,,,,,,,,,,,
,,,,,,,,,,,,,,,,,2022-06-17_13h04.53.015,Session1,2020.2.10,Win32,60,,,,,,,,,,,,,,,,,,,,,,,,,,,,,,,,,,SoundMST/Crow_A.wav,1,1,OLD,A,,,1,1,0.455,0,121,121,121,1,,,,,,,,,,,,,,,,,,,,,,,,,,
,,,,,,,,,,,,,,,,,2022-06-17_13h04.53.015,Session1,2020.2.10,Win32,60,,,,,,,,,,,,,,,,,,,,,,,,,,,,,,,,,,SoundMST/IceDrop.wav,1,1,OLD,A,,,1,1,0.951,0,122,122,122,1,,,,,,,,,,,,,,,,,,,,,,,,,,
,,,,,,,,,,,,,,,,,2022-06-17_13h04.53.015,Session1,2020.2.10,Win32,60,,,,,,,,,,,,,,,,,,,,,,,,,,,,,,,,,,SoundMST/ManWhistle_E.wav,2,2,SIMILAR,A,,,2,1,1.336,0,123,123,123,1,,,,,,,,,,,,,,,,,,,,,,,,,,
,,,,,,,,,,,,,,,,,2022-06-17_13h04.53.015,Session1,2020.2.10,Win32,60,,,,,,,,,,,,,,,,,,,,,,,,,,,,,,,,,,SoundMST/Helicopter_A.wav,1,1,OLD,A,,,1,1,0.801,0,124,124,124,1,,,,,,,,,,,,,,,,,,,,,,,,,,
,,,,,,,,,,,,,,,,,2022-06-17_13h04.53.015,Session1,2020.2.10,Win32,60,,,,,,,,,,,,,,,,,,,,,,,,,,,,,,,,,,SoundMST/Bowlingpins.wav,1,1,OLD,A,,,1,1,0.658,0,125,125,125,1,,,,,,,,,,,,,,,,,,,,,,,,,,
,,,,,,,,,,,,,,,,,2022-06-17_13h04.53.015,Session1,2020.2.10,Win32,60,,,,,,,,,,,,,,,,,,,,,,,,,,,,,,,,,,SoundMST/Coin_E.wav,2,2,SIMILAR,A,,,1,0,0.587,0,126,126,126,1,,,,,,,,,,,,,,,,,,,,,,,,,,
,,,,,,,,,,,,,,,,,2022-06-17_13h04.53.015,Session1,2020.2.10,Win32,60,,,,,,,,,,,,,,,,,,,,,,,,,,,,,,,,,,SoundMST/Bubbles_B.wav,2,2,SIMILAR,A,,,1,0,0.801,0,127,127,127,1,,,,,,,,,,,,,,,,,,,,,,,,,,
,,,,,,,,,,,,,,,,,2022-06-17_13h04.53.015,Session1,2020.2.10,Win32,60,,,,,,,,,,,,,,,,,,,,,,,,,,,,,,,,,,,,,,,,,,,,,,,,,0,0,0,0,1,,,,,,,,,,,,,,,,,,,,,
,,,,,,,,,,,,,,,,,2022-06-17_13h04.53.015,Session1,2020.2.10,Win32,60,,,,,,,,,,,,,,,,,,,,,space,26.855,,,,,,,,,,,,,,,,,,,,,,,,,,,,,,,,space,46.262,1,5.34,0,0,0,70,1,SoundMST/Camera.wav,SoundMST/Sleighbells_B.wav,DIFFERENT,,,,,,,,,
,,,,,,,,,,,,,,,,,2022-06-17_13h04.53.015,Session1,2020.2.10,Win32,60,,,,,,,,,,,,,,,,,,,,,,,,,,,,,,,,,,,,,,,,,,,,,,,,,,,,,,,,4,1.44,0,1,1,31,1,SoundMST/Guitar_B.wav,SoundMST/Guitar_B.wav,SAME,,,,,,,,,
,,,,,,,,,,,,,,,,,2022-06-17_13h04.53.015,Session1,2020.2.10,Win32,60,,,,,,,,,,,,,,,,,,,,,,,,,,,,,,,,,,,,,,,,,,,,,,,,,,,,,,,,1,2.169,0,2,2,72,1,SoundMST/Steam.wav,SoundMST/Toilet_B.wav,DIFFERENT,,,,,,,,,
,,,,,,,,,,,,,,,,,2022-06-17_13h04.53.015,Session1,2020.2.10,Win32,60,,,,,,,,,,,,,,,,,,,,,,,,,,,,,,,,,,,,,,,,,,,,,,,,,,,,,,,,4,1.836,0,3,3,35,1,SoundMST/Goat_C.wav,SoundMST/Goat_C.wav,SAME,,,,,,,,,
,,,,,,,,,,,,,,,,,2022-06-17_13h04.53.015,Session1,2020.2.10,Win32,60,,,,,,,,,,,,,,,,,,,,,,,,,,,,,,,,,,,,,,,,,,,,,,,,,,,,,,,,4,1.989,0,4,4,50,1,SoundMST/Laugh_A.wav,SoundMST/Laugh_A.wav,SAME,,,,,,,,,
,,,,,,,,,,,,,,,,,2022-06-17_13h04.53.015,Session1,2020.2.10,Win32,60,,,,,,,,,,,,,,,,,,,,,,,,,,,,,,,,,,,,,,,,,,,,,,,,,,,,,,,,1,1.952,0,5,5,74,1,SoundMST/Bullfrog.wav,SoundMST/Chicken_A.wav,DIFFERENT,,,,,,,,,
,,,,,,,,,,,,,,,,,2022-06-17_13h04.53.015,Session1,2020.2.10,Win32,60,,,,,,,,,,,,,,,,,,,,,,,,,,,,,,,,,,,,,,,,,,,,,,,,,,,,,,,,1,2.402,0,6,6,63,1,SoundMST/Mosquito_B.wav,SoundMST/Camera.wav,DIFFERENT,,,,,,,,,
,,,,,,,,,,,,,,,,,2022-06-17_13h04.53.015,Session1,2020.2.10,Win32,60,,,,,,,,,,,,,,,,,,,,,,,,,,,,,,,,,,,,,,,,,,,,,,,,,,,,,,,,1,1.308,0,7,7,65,1,SoundMST/Bowlingpins.wav,SoundMST/Steam.wav,DIFFERENT,,,,,,,,,
,,,,,,,,,,,,,,,,,2022-06-17_13h04.53.015,Session1,2020.2.10,Win32,60,,,,,,,,,,,,,,,,,,,,,,,,,,,,,,,,,,,,,,,,,,,,,,,,,,,,,,,,4,1.519,0,8,8,26,1,SoundMST/Droplet_B.wav,SoundMST/Droplet_B.wav,SAME,,,,,,,,,
,,,,,,,,,,,,,,,,,2022-06-17_13h04.53.015,Session1,2020.2.10,Win32,60,,,,,,,,,,,,,,,,,,,,,,,,,,,,,,,,,,,,,,,,,,,,,,,,,,,,,,,,4,1.67,0,9,9,45,1,SoundMST/Dog_H.wav,SoundMST/Dog_H.wav,SAME,,,,,,,,,
,,,,,,,,,,,,,,,,,2022-06-17_13h04.53.015,Session1,2020.2.10,Win32,60,,,,,,,,,,,,,,,,,,,,,,,,,,,,,,,,,,,,,,,,,,,,,,,,,,,,,,,,1,1.537,0,10,10,77,1,SoundMST/Bubbles_A.wav,SoundMST/Duck_A.wav,DIFFERENT,,,,,,,,,
,,,,,,,,,,,,,,,,,2022-06-17_13h04.53.015,Session1,2020.2.10,Win32,60,,,,,,,,,,,,,,,,,,,,,,,,,,,,,,,,,,,,,,,,,,,,,,,,,,,,,,,,3,2.409,0,11,11,48,1,SoundMST/Faucet_A.wav,SoundMST/Faucet_A.wav,SAME,,,,,,,,,
,,,,,,,,,,,,,,,,,2022-06-17_13h04.53.015,Session1,2020.2.10,Win32,60,,,,,,,,,,,,,,,,,,,,,,,,,,,,,,,,,,,,,,,,,,,,,,,,,,,,,,,,4,1.838,0,12,12,29,1,SoundMST/Cup.wav,SoundMST/Cup.wav,SAME,,,,,,,,,
,,,,,,,,,,,,,,,,,2022-06-17_13h04.53.015,Session1,2020.2.10,Win32,60,,,,,,,,,,,,,,,,,,,,,,,,,,,,,,,,,,,,,,,,,,,,,,,,,,,,,,,,4,1.619,0,13,13,44,1,SoundMST/Cough_I.wav,SoundMST/Cough_I.wav,SAME,,,,,,,,,
,,,,,,,,,,,,,,,,,2022-06-17_13h04.53.015,Session1,2020.2.10,Win32,60,,,,,,,,,,,,,,,,,,,,,,,,,,,,,,,,,,,,,,,,,,,,,,,,,,,,,,,,4,1.367,0,14,14,49,1,SoundMST/Footsteps_C.wav,SoundMST/Footsteps_C.wav,SAME,,,,,,,,,
,,,,,,,,,,,,,,,,,2022-06-17_13h04.53.015,Session1,2020.2.10,Win32,60,,,,,,,,,,,,,,,,,,,,,,,,,,,,,,,,,,,,,,,,,,,,,,,,,,,,,,,,3,2.002,0,15,15,14,1,SoundMST/Laugh_A.wav,SoundMST/Laugh_D.wav,SIMILAR,,,,,,,,,
,,,,,,,,,,,,,,,,,2022-06-17_13h04.53.015,Session1,2020.2.10,Win32,60,,,,,,,,,,,,,,,,,,,,,,,,,,,,,,,,,,,,,,,,,,,,,,,,,,,,,,,,1,1.668,0,16,16,62,1,SoundMST/Hammer_A.wav,SoundMST/Crow_A.wav,DIFFERENT,,,,,,,,,
,,,,,,,,,,,,,,,,,2022-06-17_13h04.53.015,Session1,2020.2.10,Win32,60,,,,,,,,,,,,,,,,,,,,,,,,,,,,,,,,,,,,,,,,,,,,,,,,,,,,,,,,1,1.687,0,17,17,80,1,SoundMST/Chomp_A.wav,SoundMST/Bird_A.wav,DIFFERENT,,,,,,,,,
,,,,,,,,,,,,,,,,,2022-06-17_13h04.53.015,Session1,2020.2.10,Win32,60,,,,,,,,,,,,,,,,,,,,,,,,,,,,,,,,,,,,,,,,,,,,,,,,,,,,,,,,4,1.534,0,18,18,24,1,SoundMST/Wind_B.wav,SoundMST/Wind_B.wav,SAME,,,,,,,,,
,,,,,,,,,,,,,,,,,2022-06-17_13h04.53.015,Session1,2020.2.10,Win32,60,,,,,,,,,,,,,,,,,,,,,,,,,,,,,,,,,,,,,,,,,,,,,,,,,,,,,,,,4,1.472,0,19,19,36,1,SoundMST/Baby_C.wav,SoundMST/Baby_C.wav,SAME,,,,,,,,,
,,,,,,,,,,,,,,,,,2022-06-17_13h04.53.015,Session1,2020.2.10,Win32,60,,,,,,,,,,,,,,,,,,,,,,,,,,,,,,,,,,,,,,,,,,,,,,,,,,,,,,,,4,1.472,0,20,20,30,1,SoundMST/PaperRip.wav,SoundMST/PaperRip.wav,SAME,,,,,,,,,
,,,,,,,,,,,,,,,,,2022-06-17_13h04.53.015,Session1,2020.2.10,Win32,60,,,,,,,,,,,,,,,,,,,,,,,,,,,,,,,,,,,,,,,,,,,,,,,,,,,,,,,,4,1.092,0,21,21,32,1,SoundMST/Cow.wav,SoundMST/Cow.wav,SAME,,,,,,,,,
,,,,,,,,,,,,,,,,,2022-06-17_13h04.53.015,Session1,2020.2.10,Win32,60,,,,,,,,,,,,,,,,,,,,,,,,,,,,,,,,,,,,,,,,,,,,,,,,,,,,,,,,1,1.386,0,22,22,79,1,SoundMST/Chime_D.wav,SoundMST/Baby_B.wav,DIFFERENT,,,,,,,,,
,,,,,,,,,,,,,,,,,2022-06-17_13h04.53.015,Session1,2020.2.10,Win32,60,,,,,,,,,,,,,,,,,,,,,,,,,,,,,,,,,,,,,,,,,,,,,,,,,,,,,,,,4,1.594,0,23,23,40,1,SoundMST/Chime_D.wav,SoundMST/Chime_D.wav,SAME,,,,,,,,,
,,,,,,,,,,,,,,,,,2022-06-17_13h04.53.015,Session1,2020.2.10,Win32,60,,,,,,,,,,,,,,,,,,,,,,,,,,,,,,,,,,,,,,,,,,,,,,,,,,,,,,,,3,2.002,0,24,24,16,1,SoundMST/Phone_F.wav,SoundMST/Phone_E.wav,SIMILAR,,,,,,,,,
,,,,,,,,,,,,,,,,,2022-06-17_13h04.53.015,Session1,2020.2.10,Win32,60,,,,,,,,,,,,,,,,,,,,,,,,,,,,,,,,,,,,,,,,,,,,,,,,,,,,,,,,1,3.184,0,25,25,68,1,SoundMST/Chicken_A.wav,SoundMST/Cello.wav,DIFFERENT,,,,,,,,,
,,,,,,,,,,,,,,,,,2022-06-17_13h04.53.015,Session1,2020.2.10,Win32,60,,,,,,,,,,,,,,,,,,,,,,,,,,,,,,,,,,,,,,,,,,,,,,,,,,,,,,,,2,2.087,0,26,26,17,1,SoundMST/Piano_D.wav,SoundMST/Piano_C.wav,SIMILAR,,,,,,,,,
,,,,,,,,,,,,,,,,,2022-06-17_13h04.53.015,Session1,2020.2.10,Win32,60,,,,,,,,,,,,,,,,,,,,,,,,,,,,,,,,,,,,,,,,,,,,,,,,,,,,,,,,2,2.302,0,27,27,0,1,SoundMST/Baby_C.wav,SoundMST/Baby_B.wav,SIMILAR,,,,,,,,,
,,,,,,,,,,,,,,,,,2022-06-17_13h04.53.015,Session1,2020.2.10,Win32,60,,,,,,,,,,,,,,,,,,,,,,,,,,,,,,,,,,,,,,,,,,,,,,,,,,,,,,,,2,1.95,0,28,28,21,1,SoundMST/Trumpet_B.wav,SoundMST/Trumpet_C.wav,SIMILAR,,,,,,,,,
,,,,,,,,,,,,,,,,,2022-06-17_13h04.53.015,Session1,2020.2.10,Win32,60,,,,,,,,,,,,,,,,,,,,,,,,,,,,,,,,,,,,,,,,,,,,,,,,,,,,,,,,4,2.001,0,29,29,52,1,SoundMST/Phone_F.wav,SoundMST/Phone_F.wav,SAME,,,,,,,,,
,,,,,,,,,,,,,,,,,2022-06-17_13h04.53.015,Session1,2020.2.10,Win32,60,,,,,,,,,,,,,,,,,,,,,,,,,,,,,,,,,,,,,,,,,,,,,,,,,,,,,,,,3,2.393,0,30,30,8,1,SoundMST/Cough_I.wav,SoundMST/Cough_J.wav,SIMILAR,,,,,,,,,
,,,,,,,,,,,,,,,,,2022-06-17_13h04.53.015,Session1,2020.2.10,Win32,60,,,,,,,,,,,,,,,,,,,,,,,,,,,,,,,,,,,,,,,,,,,,,,,,,,,,,,,,2,1.874,0,31,31,9,1,SoundMST/Dog_H.wav,SoundMST/Dog_I.wav,SIMILAR,,,,,,,,,
,,,,,,,,,,,,,,,,,2022-06-17_13h04.53.015,Session1,2020.2.10,Win32,60,,,,,,,,,,,,,,,,,,,,,,,,,,,,,,,,,,,,,,,,,,,,,,,,,,,,,,,,4,1.25,0,32,32,69,1,SoundMST/Airplane_B.wav,SoundMST/Airplane_B.wav,DIFFERENT,,,,,,,,,
,,,,,,,,,,,,,,,,,2022-06-17_13h04.53.015,Session1,2020.2.10,Win32,60,,,,,,,,,,,,,,,,,,,,,,,,,,,,,,,,,,,,,,,,,,,,,,,,,,,,,,,,3,1.619,0,33,33,11,1,SoundMST/Elephant_C.wav,SoundMST/Elephant_A.wav,SIMILAR,,,,,,,,,
,,,,,,,,,,,,,,,,,2022-06-17_13h04.53.015,Session1,2020.2.10,Win32,60,,,,,,,,,,,,,,,,,,,,,,,,,,,,,,,,,,,,,,,,,,,,,,,,,,,,,,,,3,2.309,0,34,34,1,1,SoundMST/Bird_C.wav,SoundMST/Bird_A.wav,SIMILAR,,,,,,,,,
,,,,,,,,,,,,,,,,,2022-06-17_13h04.53.015,Session1,2020.2.10,Win32,60,,,,,,,,,,,,,,,,,,,,,,,,,,,,,,,,,,,,,,,,,,,,,,,,,,,,,,,,4,1.494,0,35,35,39,1,SoundMST/CarStart_E.wav,SoundMST/CarStart_E.wav,SAME,,,,,,,,,
,,,,,,,,,,,,,,,,,2022-06-17_13h04.53.015,Session1,2020.2.10,Win32,60,,,,,,,,,,,,,,,,,,,,,,,,,,,,,,,,,,,,,,,,,,,,,,,,,,,,,,,,1,1.541,0,36,36,66,1,SoundMST/Crow_A.wav,SoundMST/Typing.wav,DIFFERENT,,,,,,,,,
,,,,,,,,,,,,,,,,,2022-06-17_13h04.53.015,Session1,2020.2.10,Win32,60,,,,,,,,,,,,,,,,,,,,,,,,,,,,,,,,,,,,,,,,,,,,,,,,,,,,,,,,4,1.302,0,37,37,58,1,SoundMST/Whistle_B.wav,SoundMST/Whistle_B.wav,SAME,,,,,,,,,
,,,,,,,,,,,,,,,,,2022-06-17_13h04.53.015,Session1,2020.2.10,Win32,60,,,,,,,,,,,,,,,,,,,,,,,,,,,,,,,,,,,,,,,,,,,,,,,,,,,,,,,,4,1.602,0,38,38,47,1,SoundMST/Elephant_C.wav,SoundMST/Elephant_C.wav,SAME,,,,,,,,,
,,,,,,,,,,,,,,,,,2022-06-17_13h04.53.015,Session1,2020.2.10,Win32,60,,,,,,,,,,,,,,,,,,,,,,,,,,,,,,,,,,,,,,,,,,,,,,,,,,,,,,,,2,2.567,0,39,39,12,1,SoundMST/Faucet_A.wav,SoundMST/Faucet_C.wav,SIMILAR,,,,,,,,,
,,,,,,,,,,,,,,,,,2022-06-17_13h04.53.015,Session1,2020.2.10,Win32,60,,,,,,,,,,,,,,,,,,,,,,,,,,,,,,,,,,,,,,,,,,,,,,,,,,,,,,,,1,1.367,0,40,40,82,1,SoundMST/Coin_D.wav,SoundMST/Elephant_A.wav,DIFFERENT,,,,,,,,,
,,,,,,,,,,,,,,,,,2022-06-17_13h04.53.015,Session1,2020.2.10,Win32,60,,,,,,,,,,,,,,,,,,,,,,,,,,,,,,,,,,,,,,,,,,,,,,,,,,,,,,,,1,2.157,0,41,41,71,1,SoundMST/Sleighbells_B.wav,SoundMST/Thunder_A.wav,DIFFERENT,,,,,,,,,
,,,,,,,,,,,,,,,,,2022-06-17_13h04.53.015,Session1,2020.2.10,Win32,60,,,,,,,,,,,,,,,,,,,,,,,,,,,,,,,,,,,,,,,,,,,,,,,,,,,,,,,,1,1.769,0,42,42,61,1,SoundMST/Cello.wav,SoundMST/Hammer_A.wav,DIFFERENT,,,,,,,,,
,,,,,,,,,,,,,,,,,2022-06-17_13h04.53.015,Session1,2020.2.10,Win32,60,,,,,,,,,,,,,,,,,,,,,,,,,,,,,,,,,,,,,,,,,,,,,,,,,,,,,,,,1,1.701,0,43,43,78,1,SoundMST/CarStart_E.wav,SoundMST/Coin_E.wav,DIFFERENT,,,,,,,,,
,,,,,,,,,,,,,,,,,2022-06-17_13h04.53.015,Session1,2020.2.10,Win32,60,,,,,,,,,,,,,,,,,,,,,,,,,,,,,,,,,,,,,,,,,,,,,,,,,,,,,,,,3,2.284,0,44,44,5,1,SoundMST/Chomp_A.wav,SoundMST/Chomp_C.wav,SIMILAR,,,,,,,,,
,,,,,,,,,,,,,,,,,2022-06-17_13h04.53.015,Session1,2020.2.10,Win32,60,,,,,,,,,,,,,,,,,,,,,,,,,,,,,,,,,,,,,,,,,,,,,,,,,,,,,,,,2,1.574,0,45,45,6,1,SoundMST/Clap_A.wav,SoundMST/Clap_D.wav,SIMILAR,,,,,,,,,
,,,,,,,,,,,,,,,,,2022-06-17_13h04.53.015,Session1,2020.2.10,Win32,60,,,,,,,,,,,,,,,,,,,,,,,,,,,,,,,,,,,,,,,,,,,,,,,,,,,,,,,,4,1.869,0,46,46,28,1,SoundMST/Fireworks.wav,SoundMST/Fireworks.wav,SAME,,,,,,,,,
,,,,,,,,,,,,,,,,,2022-06-17_13h04.53.015,Session1,2020.2.10,Win32,60,,,,,,,,,,,,,,,,,,,,,,,,,,,,,,,,,,,,,,,,,,,,,,,,,,,,,,,,2,1.75,0,47,47,23,1,SoundMST/Writing_A.wav,SoundMST/Writing_C.wav,SIMILAR,,,,,,,,,
,,,,,,,,,,,,,,,,,2022-06-17_13h04.53.015,Session1,2020.2.10,Win32,60,,,,,,,,,,,,,,,,,,,,,,,,,,,,,,,,,,,,,,,,,,,,,,,,,,,,,,,,4,1.554,0,48,48,42,1,SoundMST/Clap_A.wav,SoundMST/Clap_A.wav,SAME,,,,,,,,,
,,,,,,,,,,,,,,,,,2022-06-17_13h04.53.015,Session1,2020.2.10,Win32,60,,,,,,,,,,,,,,,,,,,,,,,,,,,,,,,,,,,,,,,,,,,,,,,,,,,,,,,,4,1.551,0,49,49,46,1,SoundMST/Duck_B.wav,SoundMST/Duck_B.wav,SAME,,,,,,,,,
,,,,,,,,,,,,,,,,,2022-06-17_13h04.53.015,Session1,2020.2.10,Win32,60,,,,,,,,,,,,,,,,,,,,,,,,,,,,,,,,,,,,,,,,,,,,,,,,,,,,,,,,4,1.339,0,50,50,53,1,SoundMST/Piano_D.wav,SoundMST/Piano_D.wav,SAME,,,,,,,,,
,,,,,,,,,,,,,,,,,2022-06-17_13h04.53.015,Session1,2020.2.10,Win32,60,,,,,,,,,,,,,,,,,,,,,,,,,,,,,,,,,,,,,,,,,,,,,,,,,,,,,,,,1,1.251,0,51,51,76,1,SoundMST/Bird_C.wav,SoundMST/Chime_A.wav,DIFFERENT,,,,,,,,,
,,,,,,,,,,,,,,,,,2022-06-17_13h04.53.015,Session1,2020.2.10,Win32,60,,,,,,,,,,,,,,,,,,,,,,,,,,,,,,,,,,,,,,,,,,,,,,,,,,,,,,,,4,1.498,0,52,52,37,1,SoundMST/Bird_C.wav,SoundMST/Bird_C.wav,SAME,,,,,,,,,
,,,,,,,,,,,,,,,,,2022-06-17_13h04.53.015,Session1,2020.2.10,Win32,60,,,,,,,,,,,,,,,,,,,,,,,,,,,,,,,,,,,,,,,,,,,,,,,,,,,,,,,,4,1.366,0,53,53,51,1,SoundMST/ManWhistle.wav,SoundMST/ManWhistle.wav,SAME,,,,,,,,,
,,,,,,,,,,,,,,,,,2022-06-17_13h04.53.015,Session1,2020.2.10,Win32,60,,,,,,,,,,,,,,,,,,,,,,,,,,,,,,,,,,,,,,,,,,,,,,,,,,,,,,,,1,1.5,0,54,54,73,1,SoundMST/Toilet_B.wav,SoundMST/Horse.wav,DIFFERENT,,,,,,,,,
,,,,,,,,,,,,,,,,,2022-06-17_13h04.53.015,Session1,2020.2.10,Win32,60,,,,,,,,,,,,,,,,,,,,,,,,,,,,,,,,,,,,,,,,,,,,,,,,,,,,,,,,1,1.718,0,55,55,81,1,SoundMST/Clap_A.wav,SoundMST/Bubbles_B.wav,DIFFERENT,,,,,,,,,
,,,,,,,,,,,,,,,,,2022-06-17_13h04.53.015,Session1,2020.2.10,Win32,60,,,,,,,,,,,,,,,,,,,,,,,,,,,,,,,,,,,,,,,,,,,,,,,,,,,,,,,,4,1.566,0,56,56,33,1,SoundMST/Buzz.wav,SoundMST/Buzz.wav,SAME,,,,,,,,,
,,,,,,,,,,,,,,,,,2022-06-17_13h04.53.015,Session1,2020.2.10,Win32,60,,,,,,,,,,,,,,,,,,,,,,,,,,,,,,,,,,,,,,,,,,,,,,,,,,,,,,,,4,1.506,0,57,57,43,1,SoundMST/Coin_D.wav,SoundMST/Coin_D.wav,SAME,,,,,,,,,
,,,,,,,,,,,,,,,,,2022-06-17_13h04.53.015,Session1,2020.2.10,Win32,60,,,,,,,,,,,,,,,,,,,,,,,,,,,,,,,,,,,,,,,,,,,,,,,,,,,,,,,,4,1.583,0,58,58,38,1,SoundMST/Bubbles_A.wav,SoundMST/Bubbles_A.wav,SAME,,,,,,,,,
,,,,,,,,,,,,,,,,,2022-06-17_13h04.53.015,Session1,2020.2.10,Win32,60,,,,,,,,,,,,,,,,,,,,,,,,,,,,,,,,,,,,,,,,,,,,,,,,,,,,,,,,4,1.401,0,59,59,55,1,SoundMST/Siren_E.wav,SoundMST/Siren_E.wav,SAME,,,,,,,,,
,,,,,,,,,,,,,,,,,2022-06-17_13h04.53.015,Session1,2020.2.10,Win32,60,,,,,,,,,,,,,,,,,,,,,,,,,,,,,,,,,,,,,,,,,,,,,,,,,,,,,,,,3,2.868,0,60,60,7,1,SoundMST/Coin_D.wav,SoundMST/Coin_E.wav,SIMILAR,,,,,,,,,
,,,,,,,,,,,,,,,,,2022-06-17_13h04.53.015,Session1,2020.2.10,Win32,60,,,,,,,,,,,,,,,,,,,,,,,,,,,,,,,,,,,,,,,,,,,,,,,,,,,,,,,,1,1.657,0,61,61,75,1,SoundMST/Baby_C.wav,SoundMST/Dog_I.wav,DIFFERENT,,,,,,,,,
,,,,,,,,,,,,,,,,,2022-06-17_13h04.53.015,Session1,2020.2.10,Win32,60,,,,,,,,,,,,,,,,,,,,,,,,,,,,,,,,,,,,,,,,,,,,,,,,,,,,,,,,4,1.536,0,62,62,27,1,SoundMST/Growl_H.wav,SoundMST/Growl_H.wav,SAME,,,,,,,,,
,,,,,,,,,,,,,,,,,2022-06-17_13h04.53.015,Session1,2020.2.10,Win32,60,,,,,,,,,,,,,,,,,,,,,,,,,,,,,,,,,,,,,,,,,,,,,,,,,,,,,,,,4,1.502,0,63,63,56,1,SoundMST/Snore_C.wav,SoundMST/Snore_C.wav,SAME,,,,,,,,,
,,,,,,,,,,,,,,,,,2022-06-17_13h04.53.015,Session1,2020.2.10,Win32,60,,,,,,,,,,,,,,,,,,,,,,,,,,,,,,,,,,,,,,,,,,,,,,,,,,,,,,,,3,1.683,0,64,64,2,1,SoundMST/Bubbles_A.wav,SoundMST/Bubbles_B.wav,SIMILAR,,,,,,,,,
,,,,,,,,,,,,,,,,,2022-06-17_13h04.53.015,Session1,2020.2.10,Win32,60,,,,,,,,,,,,,,,,,,,,,,,,,,,,,,,,,,,,,,,,,,,,,,,,,,,,,,,,4,2.086,0,65,65,54,1,SoundMST/Pour_F.wav,SoundMST/Pour_F.wav,SAME,,,,,,,,,
,,,,,,,,,,,,,,,,,2022-06-17_13h04.53.015,Session1,2020.2.10,Win32,60,,,,,,,,,,,,,,,,,,,,,,,,,,,,,,,,,,,,,,,,,,,,,,,,,,,,,,,,2,1.817,0,66,66,3,1,SoundMST/CarStart_E.wav,SoundMST/CarStart_D.wav,SIMILAR,,,,,,,,,
,,,,,,,,,,,,,,,,,2022-06-17_13h04.53.015,Session1,2020.2.10,Win32,60,,,,,,,,,,,,,,,,,,,,,,,,,,,,,,,,,,,,,,,,,,,,,,,,,,,,,,,,3,2.468,0,67,67,20,1,SoundMST/Snore_C.wav,SoundMST/Snore_E.wav,SIMILAR,,,,,,,,,
,,,,,,,,,,,,,,,,,2022-06-17_13h04.53.015,Session1,2020.2.10,Win32,60,,,,,,,,,,,,,,,,,,,,,,,,,,,,,,,,,,,,,,,,,,,,,,,,,,,,,,,,4,2.051,0,68,68,57,1,SoundMST/Trumpet_B.wav,SoundMST/Trumpet_B.wav,SAME,,,,,,,,,
,,,,,,,,,,,,,,,,,2022-06-17_13h04.53.015,Session1,2020.2.10,Win32,60,,,,,,,,,,,,,,,,,,,,,,,,,,,,,,,,,,,,,,,,,,,,,,,,,,,,,,,,3,2.949,0,69,69,15,1,SoundMST/ManWhistle.wav,SoundMST/ManWhistle_E.wav,SIMILAR,,,,,,,,,
,,,,,,,,,,,,,,,,,2022-06-17_13h04.53.015,Session1,2020.2.10,Win32,60,,,,,,,,,,,,,,,,,,,,,,,,,,,,,,,,,,,,,,,,,,,,,,,,,,,,,,,,3,2.051,0,70,70,13,1,SoundMST/Footsteps_C.wav,SoundMST/Footsteps_F.wav,SIMILAR,,,,,,,,,
,,,,,,,,,,,,,,,,,2022-06-17_13h04.53.015,Session1,2020.2.10,Win32,60,,,,,,,,,,,,,,,,,,,,,,,,,,,,,,,,,,,,,,,,,,,,,,,,,,,,,,,,4,2.383,0,71,71,41,1,SoundMST/Chomp_A.wav,SoundMST/Chomp_A.wav,SAME,,,,,,,,,
,,,,,,,,,,,,,,,,,2022-06-17_13h04.53.015,Session1,2020.2.10,Win32,60,,,,,,,,,,,,,,,,,,,,,,,,,,,,,,,,,,,,,,,,,,,,,,,,,,,,,,,,3,2.302,0,72,72,4,1,SoundMST/Chime_D.wav,SoundMST/Chime_A.wav,SIMILAR,,,,,,,,,
,,,,,,,,,,,,,,,,,2022-06-17_13h04.53.015,Session1,2020.2.10,Win32,60,,,,,,,,,,,,,,,,,,,,,,,,,,,,,,,,,,,,,,,,,,,,,,,,,,,,,,,,3,1.972,0,73,73,10,1,SoundMST/Duck_B.wav,SoundMST/Duck_A.wav,SIMILAR,,,,,,,,,
,,,,,,,,,,,,,,,,,2022-06-17_13h04.53.015,Session1,2020.2.10,Win32,60,,,,,,,,,,,,,,,,,,,,,,,,,,,,,,,,,,,,,,,,,,,,,,,,,,,,,,,,3,1.535,0,74,74,18,1,SoundMST/Pour_F.wav,SoundMST/Pour_C.wav,SIMILAR,,,,,,,,,
,,,,,,,,,,,,,,,,,2022-06-17_13h04.53.015,Session1,2020.2.10,Win32,60,,,,,,,,,,,,,,,,,,,,,,,,,,,,,,,,,,,,,,,,,,,,,,,,,,,,,,,,3,1.532,0,75,75,22,1,SoundMST/Whistle_B.wav,SoundMST/Whistle_C.wav,SIMILAR,,,,,,,,,
,,,,,,,,,,,,,,,,,2022-06-17_13h04.53.015,Session1,2020.2.10,Win32,60,,,,,,,,,,,,,,,,,,,,,,,,,,,,,,,,,,,,,,,,,,,,,,,,,,,,,,,,1,1.673,0,76,76,60,1,SoundMST/Typing.wav,SoundMST/Bullfrog.wav,DIFFERENT,,,,,,,,,
,,,,,,,,,,,,,,,,,2022-06-17_13h04.53.015,Session1,2020.2.10,Win32,60,,,,,,,,,,,,,,,,,,,,,,,,,,,,,,,,,,,,,,,,,,,,,,,,,,,,,,,,4,1.7,0,77,77,25,1,SoundMST/Puff_A.wav,SoundMST/Puff_A.wav,SAME,,,,,,,,,
,,,,,,,,,,,,,,,,,2022-06-17_13h04.53.015,Session1,2020.2.10,Win32,60,,,,,,,,,,,,,,,,,,,,,,,,,,,,,,,,,,,,,,,,,,,,,,,,,,,,,,,,1,1.806,0,78,78,67,1,SoundMST/Cuckoo_A.wav,SoundMST/Mosquito_B.wav,DIFFERENT,,,,,,,,,
,,,,,,,,,,,,,,,,,2022-06-17_13h04.53.015,Session1,2020.2.10,Win32,60,,,,,,,,,,,,,,,,,,,,,,,,,,,,,,,,,,,,,,,,,,,,,,,,,,,,,,,,3,2.919,0,79,79,19,1,SoundMST/Siren_E.wav,SoundMST/Siren_A.wav,SIMILAR,,,,,,,,,
,,,,,,,,,,,,,,,,,2022-06-17_13h04.53.015,Session1,2020.2.10,Win32,60,,,,,,,,,,,,,,,,,,,,,,,,,,,,,,,,,,,,,,,,,,,,,,,,,,,,,,,,1,1.94,0,80,80,64,1,SoundMST/Horse.wav,SoundMST/Bowlingpins.wav,DIFFERENT,,,,,,,,,
,,,,,,,,,,,,,,,,,2022-06-17_13h04.53.015,Session1,2020.2.10,Win32,60,,,,,,,,,,,,,,,,,,,,,,,,,,,,,,,,,,,,,,,,,,,,,,,,,,,,,,,,1,1.586,0,81,81,59,1,SoundMST/Thunder_A.wav,SoundMST/Cuckoo_A.wav,DIFFERENT,,,,,,,,,
,,,,,,,,,,,,,,,,,2022-06-17_13h04.53.015,Session1,2020.2.10,Win32,60,,,,,,,,,,,,,,,,,,,,,,,,,,,,,,,,,,,,,,,,,,,,,,,,,,,,,,,,4,1.55,0,82,82,34,1,SoundMST/DialTone.wav,SoundMST/DialTone.wav,SAME,,,,,,,,,
,,,,,,,,,,,,,,,,,2022-06-17_13h04.53.015,Session1,2020.2.10,Win32,60,,,,,,,,,,,,,,,,,,,,,space,15.025,,,,,,,,,,,,,,,,,,,,,,,,,,,,,,,,,,,,,,,,,SoundMST/Mosquito_B.wav,NEW,NA,space,34.084,bee,4.133,0,0,0,17,1
,,,,,,,,,,,,,,,,,2022-06-17_13h04.53.015,Session1,2020.2.10,Win32,60,,,,,,,,,,,,,,,,,,,,,,,,,,,,,,,,,,,,,,,,,,,,,,,,,,,,,,,,,,,,,,,SoundMST/ManWhistle_E.wav,SIMILAR,NA,,,whistle,3.549,0,1,1,85,1
,,,,,,,,,,,,,,,,,2022-06-17_13h04.53.015,Session1,2020.2.10,Win32,60,,,,,,,,,,,,,,,,,,,,,,,,,,,,,,,,,,,,,,,,,,,,,,,,,,,,,,,,,,,,,,,SoundMST/Chime_D.wav,NEW,NA,,,church bell,4.332,0,2,2,20,1
,,,,,,,,,,,,,,,,,2022-06-17_13h04.53.015,Session1,2020.2.10,Win32,60,,,,,,,,,,,,,,,,,,,,,,,,,,,,,,,,,,,,,,,,,,,,,,,,,,,,,,,,,,,,,,,SoundMST/Snore_C.wav,NEW,NA,,,snoring,3.807,0,3,3,16,1
,,,,,,,,,,,,,,,,,2022-06-17_13h04.53.015,Session1,2020.2.10,Win32,60,,,,,,,,,,,,,,,,,,,,,,,,,,,,,,,,,,,,,,,,,,,,,,,,,,,,,,,,,,,,,,,SoundMST/Writing_C.wav,SIMILAR,NA,,,chalk on a chalkboard,4.199,0,4,4,64,1
,,,,,,,,,,,,,,,,,2022-06-17_13h04.53.015,Session1,2020.2.10,Win32,60,,,,,,,,,,,,,,,,,,,,,,,,,,,,,,,,,,,,,,,,,,,,,,,,,,,,,,,,,,,,,,,SoundMST/Hammer_A.wav,NEW,NA,,,hammering a nail,4.284,0,5,5,32,1
,,,,,,,,,,,,,,,,,2022-06-17_13h04.53.015,Session1,2020.2.10,Win32,60,,,,,,,,,,,,,,,,,,,,,,,,,,,,,,,,,,,,,,,,,,,,,,,,,,,,,,,,,,,,,,,SoundMST/CarStart_E.wav,NEW,NA,,,starting a car,3.671,0,6,6,2,1
,,,,,,,,,,,,,,,,,2022-06-17_13h04.53.015,Session1,2020.2.10,Win32,60,,,,,,,,,,,,,,,,,,,,,,,,,,,,,,,,,,,,,,,,,,,,,,,,,,,,,,,,,,,,,,,SoundMST/Chomp_C.wav,SIMILAR,NA,,,chewing/crunching,5.117,0,7,7,84,1
,,,,,,,,,,,,,,,,,2022-06-17_13h04.53.015,Session1,2020.2.10,Win32,60,,,,,,,,,,,,,,,,,,,,,,,,,,,,,,,,,,,,,,,,,,,,,,,,,,,,,,,,,,,,,,,SoundMST/ManWhistle.wav,NEW,NA,,,whistle,4.356,0,8,8,60,1
,,,,,,,,,,,,,,,,,2022-06-17_13h04.53.015,Session1,2020.2.10,Win32,60,,,,,,,,,,,,,,,,,,,,,,,,,,,,,,,,,,,,,,,,,,,,,,,,,,,,,,,,,,,,,,,SoundMST/Puff_A.wav,NEW,NA,,,dog toy,4.415,0,9,9,4,1
,,,,,,,,,,,,,,,,,2022-06-17_13h04.53.015,Session1,2020.2.10,Win32,60,,,,,,,,,,,,,,,,,,,,,,,,,,,,,,,,,,,,,,,,,,,,,,,,,,,,,,,,,,,,,,,SoundMST/IceDrop.wav,NEW,NA,,,ice cubes in a glass,5.114,0,10,10,55,1
,,,,,,,,,,,,,,,,,2022-06-17_13h04.53.015,Session1,2020.2.10,Win32,60,,,,,,,,,,,,,,,,,,,,,,,,,,,,,,,,,,,,,,,,,,,,,,,,,,,,,,,,,,,,,,,SoundMST/Printer.wav,NEW,NA,,,don't know,5.208,0,11,11,34,1
,,,,,,,,,,,,,,,,,2022-06-17_13h04.53.015,Session1,2020.2.10,Win32,60,,,,,,,,,,,,,,,,,,,,,,,,,,,,,,,,,,,,,,,,,,,,,,,,,,,,,,,,,,,,,,,SoundMST/Pour_F.wav,NEW,NA,,,water being poured,5.073,0,12,12,37,1
,,,,,,,,,,,,,,,,,2022-06-17_13h04.53.015,Session1,2020.2.10,Win32,60,,,,,,,,,,,,,,,,,,,,,,,,,,,,,,,,,,,,,,,,,,,,,,,,,,,,,,,,,,,,,,,SoundMST/Cough_I.wav,NEW,NA,,,coughing,4.136,0,13,13,18,1
,,,,,,,,,,,,,,,,,2022-06-17_13h04.53.015,Session1,2020.2.10,Win32,60,,,,,,,,,,,,,,,,,,,,,,,,,,,,,,,,,,,,,,,,,,,,,,,,,,,,,,,,,,,,,,,SoundMST/Clap_D.wav,SIMILAR,NA,,,clapping,5.066,0,14,14,81,1
,,,,,,,,,,,,,,,,,2022-06-17_13h04.53.015,Session1,2020.2.10,Win32,60,,,,,,,,,,,,,,,,,,,,,,,,,,,,,,,,,,,,,,,,,,,,,,,,,,,,,,,,,,,,,,,SoundMST/Faucet_A.wav,NEW,NA,,,water being poured,4.831,0,15,15,21,1
,,,,,,,,,,,,,,,,,2022-06-17_13h04.53.015,Session1,2020.2.10,Win32,60,,,,,,,,,,,,,,,,,,,,,,,,,,,,,,,,,,,,,,,,,,,,,,,,,,,,,,,,,,,,,,,SoundMST/Phone_E.wav,SIMILAR,NA,,,telephone ring,3.957,0,16,16,70,1
,,,,,,,,,,,,,,,,,2022-06-17_13h04.53.015,Session1,2020.2.10,Win32,60,,,,,,,,,,,,,,,,,,,,,,,,,,,,,,,,,,,,,,,,,,,,,,,,,,,,,,,,,,,,,,,SoundMST/Guitar_B.wav,NEW,NA,,,guitar,4.656,0,17,17,24,1
,,,,,,,,,,,,,,,,,2022-06-17_13h04.53.015,Session1,2020.2.10,Win32,60,,,,,,,,,,,,,,,,,,,,,,,,,,,,,,,,,,,,,,,,,,,,,,,,,,,,,,,,,,,,,,,SoundMST/Chime_A.wav,SIMILAR,NA,,,bell,3.533,0,18,18,72,1
,,,,,,,,,,,,,,,,,2022-06-17_13h04.53.015,Session1,2020.2.10,Win32,60,,,,,,,,,,,,,,,,,,,,,,,,,,,,,,,,,,,,,,,,,,,,,,,,,,,,,,,,,,,,,,,SoundMST/Coin_E.wav,SIMILAR,NA,,,grabbing coins,5.1,0,19,19,86,1
,,,,,,,,,,,,,,,,,2022-06-17_13h04.53.015,Session1,2020.2.10,Win32,60,,,,,,,,,,,,,,,,,,,,,,,,,,,,,,,,,,,,,,,,,,,,,,,,,,,,,,,,,,,,,,,SoundMST/Writing_A.wav,NEW,NA,,,chalkboard wriitng,4.275,0,20,20,1,1
,,,,,,,,,,,,,,,,,2022-06-17_13h04.53.015,Session1,2020.2.10,Win32,60,,,,,,,,,,,,,,,,,,,,,,,,,,,,,,,,,,,,,,,,,,,,,,,,,,,,,,,,,,,,,,,SoundMST/Trumpet_B.wav,NEW,NA,,,bugle,4.499,0,21,21,5,1
,,,,,,,,,,,,,,,,,2022-06-17_13h04.53.015,Session1,2020.2.10,Win32,60,,,,,,,,,,,,,,,,,,,,,,,,,,,,,,,,,,,,,,,,,,,,,,,,,,,,,,,,,,,,,,,SoundMST/Sleighbells_B.wav,NEW,NA,,,jingle bells,5.071,0,22,22,25,1
,,,,,,,,,,,,,,,,,2022-06-17_13h04.53.015,Session1,2020.2.10,Win32,60,,,,,,,,,,,,,,,,,,,,,,,,,,,,,,,,,,,,,,,,,,,,,,,,,,,,,,,,,,,,,,,SoundMST/Laugh_D.wav,SIMILAR,NA,,,laughter,4.254,0,23,23,78,1
,,,,,,,,,,,,,,,,,2022-06-17_13h04.53.015,Session1,2020.2.10,Win32,60,,,,,,,,,,,,,,,,,,,,,,,,,,,,,,,,,,,,,,,,,,,,,,,,,,,,,,,,,,,,,,,SoundMST/Piano_C.wav,SIMILAR,NA,,,piano music,4.775,0,24,24,67,1
,,,,,,,,,,,,,,,,,2022-06-17_13h04.53.015,Session1,2020.2.10,Win32,60,,,,,,,,,,,,,,,,,,,,,,,,,,,,,,,,,,,,,,,,,,,,,,,,,,,,,,,,,,,,,,,SoundMST/Piano_D.wav,NEW,NA,,,piano music,4.753,0,25,25,7,1
,,,,,,,,,,,,,,,,,2022-06-17_13h04.53.015,Session1,2020.2.10,Win32,60,,,,,,,,,,,,,,,,,,,,,,,,,,,,,,,,,,,,,,,,,,,,,,,,,,,,,,,,,,,,,,,SoundMST/Airplane_B.wav,NEW,NA,,,airplane overhead,4.759,0,26,26,36,1
,,,,,,,,,,,,,,,,,2022-06-17_13h04.53.015,Session1,2020.2.10,Win32,60,,,,,,,,,,,,,,,,,,,,,,,,,,,,,,,,,,,,,,,,,,,,,,,,,,,,,,,,,,,,,,,SoundMST/HairDryer_A.wav,NEW,NA,,,carpet vacuume,4.584,0,27,27,38,1
,,,,,,,,,,,,,,,,,2022-06-17_13h04.53.015,Session1,2020.2.10,Win32,60,,,,,,,,,,,,,,,,,,,,,,,,,,,,,,,,,,,,,,,,,,,,,,,,,,,,,,,,,,,,,,,SoundMST/Typing.wav,NEW,NA,,,typing,5.583,0,28,28,47,1
,,,,,,,,,,,,,,,,,2022-06-17_13h04.53.015,Session1,2020.2.10,Win32,60,,,,,,,,,,,,,,,,,,,,,,,,,,,,,,,,,,,,,,,,,,,,,,,,,,,,,,,,,,,,,,,SoundMST/Chomp_A.wav,NEW,NA,,,chewing/crunching,5.04,0,29,29,57,1
,,,,,,,,,,,,,,,,,2022-06-17_13h04.53.015,Session1,2020.2.10,Win32,60,,,,,,,,,,,,,,,,,,,,,,,,,,,,,,,,,,,,,,,,,,,,,,,,,,,,,,,,,,,,,,,SoundMST/Droplet_B.wav,NEW,NA,,,tap dripping,5.719,0,30,30,49,1
,,,,,,,,,,,,,,,,,2022-06-17_13h04.53.015,Session1,2020.2.10,Win32,60,,,,,,,,,,,,,,,,,,,,,,,,,,,,,,,,,,,,,,,,,,,,,,,,,,,,,,,,,,,,,,,SoundMST/Coin_D.wav,NEW,NA,,,grabbing coins,5.19,0,31,31,61,1
,,,,,,,,,,,,,,,,,2022-06-17_13h04.53.015,Session1,2020.2.10,Win32,60,,,,,,,,,,,,,,,,,,,,,,,,,,,,,,,,,,,,,,,,,,,,,,,,,,,,,,,,,,,,,,,SoundMST/Baby_B.wav,SIMILAR,NA,,,baby cooing,5.783,0,32,32,74,1
,,,,,,,,,,,,,,,,,2022-06-17_13h04.53.015,Session1,2020.2.10,Win32,60,,,,,,,,,,,,,,,,,,,,,,,,,,,,,,,,,,,,,,,,,,,,,,,,,,,,,,,,,,,,,,,SoundMST/Phone_F.wav,NEW,NA,,,phone ringing,3.908,0,33,33,15,1
,,,,,,,,,,,,,,,,,2022-06-17_13h04.53.015,Session1,2020.2.10,Win32,60,,,,,,,,,,,,,,,,,,,,,,,,,,,,,,,,,,,,,,,,,,,,,,,,,,,,,,,,,,,,,,,SoundMST/Toilet_B.wav,NEW,NA,,,toilet being flushed,4.984,0,34,34,40,1
,,,,,,,,,,,,,,,,,2022-06-17_13h04.53.015,Session1,2020.2.10,Win32,60,,,,,,,,,,,,,,,,,,,,,,,,,,,,,,,,,,,,,,,,,,,,,,,,,,,,,,,,,,,,,,,SoundMST/Cow.wav,NEW,NA,,,cow mooing,4.467,0,35,35,44,1
,,,,,,,,,,,,,,,,,2022-06-17_13h04.53.015,Session1,2020.2.10,Win32,60,,,,,,,,,,,,,,,,,,,,,,,,,,,,,,,,,,,,,,,,,,,,,,,,,,,,,,,,,,,,,,,SoundMST/Thunder_A.wav,NEW,NA,,,thunderstorm,4.307,0,36,36,39,1
,,,,,,,,,,,,,,,,,2022-06-17_13h04.53.015,Session1,2020.2.10,Win32,60,,,,,,,,,,,,,,,,,,,,,,,,,,,,,,,,,,,,,,,,,,,,,,,,,,,,,,,,,,,,,,,SoundMST/Pour_C.wav,SIMILAR,NA,,,pouring liquid,5.225,0,37,37,79,1
,,,,,,,,,,,,,,,,,2022-06-17_13h04.53.015,Session1,2020.2.10,Win32,60,,,,,,,,,,,,,,,,,,,,,,,,,,,,,,,,,,,,,,,,,,,,,,,,,,,,,,,,,,,,,,,SoundMST/Bird_C.wav,NEW,NA,,,bird chirping,3.754,0,38,38,22,1
,,,,,,,,,,,,,,,,,2022-06-17_13h04.53.015,Session1,2020.2.10,Win32,60,,,,,,,,,,,,,,,,,,,,,,,,,,,,,,,,,,,,,,,,,,,,,,,,,,,,,,,,,,,,,,,SoundMST/Cello.wav,NEW,NA,,,bass/violin,7.781,0,39,39,8,1
,,,,,,,,,,,,,,,,,2022-06-17_13h04.53.015,Session1,2020.2.10,Win32,60,,,,,,,,,,,,,,,,,,,,,,,,,,,,,,,,,,,,,,,,,,,,,,,,,,,,,,,,,,,,,,,SoundMST/Howl.wav,NEW,NA,,,coyote call,5.257,0,40,40,33,1
,,,,,,,,,,,,,,,,,2022-06-17_13h04.53.015,Session1,2020.2.10,Win32,60,,,,,,,,,,,,,,,,,,,,,,,,,,,,,,,,,,,,,,,,,,,,,,,,,,,,,,,,,,,,,,,SoundMST/Whistle_C.wav,SIMILAR,NA,,,whistle,3.721,0,41,41,82,1
,,,,,,,,,,,,,,,,,2022-06-17_13h04.53.015,Session1,2020.2.10,Win32,60,,,,,,,,,,,,,,,,,,,,,,,,,,,,,,,,,,,,,,,,,,,,,,,,,,,,,,,,,,,,,,,SoundMST/Sneeze_B.wav,NEW,NA,,,sneeze,4.182,0,42,42,43,1
,,,,,,,,,,,,,,,,,2022-06-17_13h04.53.015,Session1,2020.2.10,Win32,60,,,,,,,,,,,,,,,,,,,,,,,,,,,,,,,,,,,,,,,,,,,,,,,,,,,,,,,,,,,,,,,SoundMST/Buzz.wav,NEW,NA,,,cellphone ringing,5.386,0,43,43,0,1
,,,,,,,,,,,,,,,,,2022-06-17_13h04.53.015,Session1,2020.2.10,Win32,60,,,,,,,,,,,,,,,,,,,,,,,,,,,,,,,,,,,,,,,,,,,,,,,,,,,,,,,,,,,,,,,SoundMST/CarStart_D.wav,SIMILAR,NA,,,car engine starting,6.004,0,44,44,65,1
,,,,,,,,,,,,,,,,,2022-06-17_13h04.53.015,Session1,2020.2.10,Win32,60,,,,,,,,,,,,,,,,,,,,,,,,,,,,,,,,,,,,,,,,,,,,,,,,,,,,,,,,,,,,,,,SoundMST/Chicken_A.wav,NEW,NA,,,chicken,4.335,0,45,45,11,1
,,,,,,,,,,,,,,,,,2022-06-17_13h04.53.015,Session1,2020.2.10,Win32,60,,,,,,,,,,,,,,,,,,,,,,,,,,,,,,,,,,,,,,,,,,,,,,,,,,,,,,,,,,,,,,,SoundMST/Bird_A.wav,SIMILAR,NA,,,bird chirping,4.05,0,46,46,75,1
,,,,,,,,,,,,,,,,,2022-06-17_13h04.53.015,Session1,2020.2.10,Win32,60,,,,,,,,,,,,,,,,,,,,,,,,,,,,,,,,,,,,,,,,,,,,,,,,,,,,,,,,,,,,,,,SoundMST/Bagpipe.wav,NEW,NA,,,bagpipes,3.738,0,47,47,53,1
,,,,,,,,,,,,,,,,,2022-06-17_13h04.53.015,Session1,2020.2.10,Win32,60,,,,,,,,,,,,,,,,,,,,,,,,,,,,,,,,,,,,,,,,,,,,,,,,,,,,,,,,,,,,,,,SoundMST/Heartbeat.wav,NEW,NA,,,heartbeat,4.267,0,48,48,6,1
,,,,,,,,,,,,,,,,,2022-06-17_13h04.53.015,Session1,2020.2.10,Win32,60,,,,,,,,,,,,,,,,,,,,,,,,,,,,,,,,,,,,,,,,,,,,,,,,,,,,,,,,,,,,,,,SoundMST/Elephant_A.wav,SIMILAR,NA,,,elephant,4.518,0,49,49,68,1
,,,,,,,,,,,,,,,,,2022-06-17_13h04.53.015,Session1,2020.2.10,Win32,60,,,,,,,,,,,,,,,,,,,,,,,,,,,,,,,,,,,,,,,,,,,,,,,,,,,,,,,,,,,,,,,SoundMST/Dog_H.wav,NEW,NA,,,dog,4.137,0,50,50,29,1
,,,,,,,,,,,,,,,,,2022-06-17_13h04.53.015,Session1,2020.2.10,Win32,60,,,,,,,,,,,,,,,,,,,,,,,,,,,,,,,,,,,,,,,,,,,,,,,,,,,,,,,,,,,,,,,SoundMST/Dog_I.wav,SIMILAR,NA,,,dog,4.35,0,51,51,77,1
,,,,,,,,,,,,,,,,,2022-06-17_13h04.53.015,Session1,2020.2.10,Win32,60,,,,,,,,,,,,,,,,,,,,,,,,,,,,,,,,,,,,,,,,,,,,,,,,,,,,,,,,,,,,,,,SoundMST/Bubbles_B.wav,SIMILAR,NA,,,aquarium water from tube,5.866,0,52,52,87,1
,,,,,,,,,,,,,,,,,2022-06-17_13h04.53.015,Session1,2020.2.10,Win32,60,,,,,,,,,,,,,,,,,,,,,,,,,,,,,,,,,,,,,,,,,,,,,,,,,,,,,,,,,,,,,,,SoundMST/Laugh_A.wav,NEW,NA,,,laughter,4.57,0,53,53,28,1
,,,,,,,,,,,,,,,,,2022-06-17_13h04.53.015,Session1,2020.2.10,Win32,60,,,,,,,,,,,,,,,,,,,,,,,,,,,,,,,,,,,,,,,,,,,,,,,,,,,,,,,,,,,,,,,SoundMST/Elephant_C.wav,NEW,NA,,,elephant,4.265,0,54,54,3,1
,,,,,,,,,,,,,,,,,2022-06-17_13h04.53.015,Session1,2020.2.10,Win32,60,,,,,,,,,,,,,,,,,,,,,,,,,,,,,,,,,,,,,,,,,,,,,,,,,,,,,,,,,,,,,,,SoundMST/PaperRip.wav,NEW,NA,,,something being ripped,3.484,0,55,55,56,1
,,,,,,,,,,,,,,,,,2022-06-17_13h04.53.015,Session1,2020.2.10,Win32,60,,,,,,,,,,,,,,,,,,,,,,,,,,,,,,,,,,,,,,,,,,,,,,,,,,,,,,,,,,,,,,,SoundMST/Growl_H.wav,NEW,NA,,,lion/tiger,6.481,0,56,56,45,1
,,,,,,,,,,,,,,,,,2022-06-17_13h04.53.015,Session1,2020.2.10,Win32,60,,,,,,,,,,,,,,,,,,,,,,,,,,,,,,,,,,,,,,,,,,,,,,,,,,,,,,,,,,,,,,,SoundMST/Whistle_B.wav,NEW,NA,,,whistle being blown,5.016,0,57,57,51,1
,,,,,,,,,,,,,,,,,2022-06-17_13h04.53.015,Session1,2020.2.10,Win32,60,,,,,,,,,,,,,,,,,,,,,,,,,,,,,,,,,,,,,,,,,,,,,,,,,,,,,,,,,,,,,,,SoundMST/Wind_B.wav,NEW,NA,,,snowstorm,4.972,0,58,58,50,1
,,,,,,,,,,,,,,,,,2022-06-17_13h04.53.015,Session1,2020.2.10,Win32,60,,,,,,,,,,,,,,,,,,,,,,,,,,,,,,,,,,,,,,,,,,,,,,,,,,,,,,,,,,,,,,,SoundMST/Helicopter_A.wav,NEW,NA,,,helicopter,4.272,0,59,59,62,1
,,,,,,,,,,,,,,,,,2022-06-17_13h04.53.015,Session1,2020.2.10,Win32,60,,,,,,,,,,,,,,,,,,,,,,,,,,,,,,,,,,,,,,,,,,,,,,,,,,,,,,,,,,,,,,,SoundMST/Bubbles_A.wav,NEW,NA,,,aquarium water from tube,5.173,0,60,60,63,1
,,,,,,,,,,,,,,,,,2022-06-17_13h04.53.015,Session1,2020.2.10,Win32,60,,,,,,,,,,,,,,,,,,,,,,,,,,,,,,,,,,,,,,,,,,,,,,,,,,,,,,,,,,,,,,,SoundMST/Bowlingpins.wav,NEW,NA,,,balling ball pins,5.922,0,61,61,59,1
,,,,,,,,,,,,,,,,,2022-06-17_13h04.53.015,Session1,2020.2.10,Win32,60,,,,,,,,,,,,,,,,,,,,,,,,,,,,,,,,,,,,,,,,,,,,,,,,,,,,,,,,,,,,,,,SoundMST/Snore_E.wav,SIMILAR,NA,,,snoring,5.103,0,62,62,71,1
,,,,,,,,,,,,,,,,,2022-06-17_13h04.53.015,Session1,2020.2.10,Win32,60,,,,,,,,,,,,,,,,,,,,,,,,,,,,,,,,,,,,,,,,,,,,,,,,,,,,,,,,,,,,,,,SoundMST/Horse.wav,NEW,NA,,,horse,4.134,0,63,63,35,1
,,,,,,,,,,,,,,,,,2022-06-17_13h04.53.015,Session1,2020.2.10,Win32,60,,,,,,,,,,,,,,,,,,,,,,,,,,,,,,,,,,,,,,,,,,,,,,,,,,,,,,,,,,,,,,,SoundMST/Footsteps_C.wav,NEW,NA,,,walking upstairs,6.201,0,64,64,41,1
,,,,,,,,,,,,,,,,,2022-06-17_13h04.53.015,Session1,2020.2.10,Win32,60,,,,,,,,,,,,,,,,,,,,,,,,,,,,,,,,,,,,,,,,,,,,,,,,,,,,,,,,,,,,,,,SoundMST/Clap_A.wav,NEW,NA,,,clapping,4.533,0,65,65,48,1
,,,,,,,,,,,,,,,,,2022-06-17_13h04.53.015,Session1,2020.2.10,Win32,60,,,,,,,,,,,,,,,,,,,,,,,,,,,,,,,,,,,,,,,,,,,,,,,,,,,,,,,,,,,,,,,SoundMST/Crow_A.wav,NEW,NA,,,bird,4.953,0,66,66,58,1
,,,,,,,,,,,,,,,,,2022-06-17_13h04.53.015,Session1,2020.2.10,Win32,60,,,,,,,,,,,,,,,,,,,,,,,,,,,,,,,,,,,,,,,,,,,,,,,,,,,,,,,,,,,,,,,SoundMST/Footsteps_F.wav,SIMILAR,NA,,,footsteps walking,5.053,0,67,67,80,1
,,,,,,,,,,,,,,,,,2022-06-17_13h04.53.015,Session1,2020.2.10,Win32,60,,,,,,,,,,,,,,,,,,,,,,,,,,,,,,,,,,,,,,,,,,,,,,,,,,,,,,,,,,,,,,,SoundMST/Fireworks.wav,NEW,NA,,,fireworks,4.158,0,68,68,52,1
,,,,,,,,,,,,,,,,,2022-06-17_13h04.53.015,Session1,2020.2.10,Win32,60,,,,,,,,,,,,,,,,,,,,,,,,,,,,,,,,,,,,,,,,,,,,,,,,,,,,,,,,,,,,,,,SoundMST/Trumpet_C.wav,SIMILAR,NA,,,bugle,4.316,0,69,69,66,1
,,,,,,,,,,,,,,,,,2022-06-17_13h04.53.015,Session1,2020.2.10,Win32,60,,,,,,,,,,,,,,,,,,,,,,,,,,,,,,,,,,,,,,,,,,,,,,,,,,,,,,,,,,,,,,,SoundMST/Donkey.wav,NEW,NA,,,donkey,4.439,0,70,70,30,1
,,,,,,,,,,,,,,,,,2022-06-17_13h04.53.015,Session1,2020.2.10,Win32,60,,,,,,,,,,,,,,,,,,,,,,,,,,,,,,,,,,,,,,,,,,,,,,,,,,,,,,,,,,,,,,,SoundMST/Duck_B.wav,NEW,NA,,,duck,5.453,0,71,71,13,1
,,,,,,,,,,,,,,,,,2022-06-17_13h04.53.015,Session1,2020.2.10,Win32,60,,,,,,,,,,,,,,,,,,,,,,,,,,,,,,,,,,,,,,,,,,,,,,,,,,,,,,,,,,,,,,,SoundMST/Bullfrog.wav,NEW,NA,,,frog,4.516,0,72,72,23,1
,,,,,,,,,,,,,,,,,2022-06-17_13h04.53.015,Session1,2020.2.10,Win32,60,,,,,,,,,,,,,,,,,,,,,,,,,,,,,,,,,,,,,,,,,,,,,,,,,,,,,,,,,,,,,,,SoundMST/Cough_J.wav,SIMILAR,NA,,,coughing,3.9,0,73,73,76,1
,,,,,,,,,,,,,,,,,2022-06-17_13h04.53.015,Session1,2020.2.10,Win32,60,,,,,,,,,,,,,,,,,,,,,,,,,,,,,,,,,,,,,,,,,,,,,,,,,,,,,,,,,,,,,,,SoundMST/Slurp.wav,NEW,NA,,,slurping a drink,5.275,0,74,74,31,1
,,,,,,,,,,,,,,,,,2022-06-17_13h04.53.015,Session1,2020.2.10,Win32,60,,,,,,,,,,,,,,,,,,,,,,,,,,,,,,,,,,,,,,,,,,,,,,,,,,,,,,,,,,,,,,,SoundMST/Faucet_C.wav,SIMILAR,NA,,,shower running,4.642,0,75,75,73,1
,,,,,,,,,,,,,,,,,2022-06-17_13h04.53.015,Session1,2020.2.10,Win32,60,,,,,,,,,,,,,,,,,,,,,,,,,,,,,,,,,,,,,,,,,,,,,,,,,,,,,,,,,,,,,,,SoundMST/Cuckoo_A.wav,NEW,NA,,,cuckoo clock,4.1,0,76,76,10,1
,,,,,,,,,,,,,,,,,2022-06-17_13h04.53.015,Session1,2020.2.10,Win32,60,,,,,,,,,,,,,,,,,,,,,,,,,,,,,,,,,,,,,,,,,,,,,,,,,,,,,,,,,,,,,,,SoundMST/Goat_C.wav,NEW,NA,,,lamb ,5.303,0,77,77,12,1
,,,,,,,,,,,,,,,,,2022-06-17_13h04.53.015,Session1,2020.2.10,Win32,60,,,,,,,,,,,,,,,,,,,,,,,,,,,,,,,,,,,,,,,,,,,,,,,,,,,,,,,,,,,,,,,SoundMST/Siren_A.wav,SIMILAR,NA,,,siren,4.154,0,78,78,83,1
,,,,,,,,,,,,,,,,,2022-06-17_13h04.53.015,Session1,2020.2.10,Win32,60,,,,,,,,,,,,,,,,,,,,,,,,,,,,,,,,,,,,,,,,,,,,,,,,,,,,,,,,,,,,,,,SoundMST/Cup.wav,NEW,NA,,,bumping a glass,5.282,0,79,79,42,1
,,,,,,,,,,,,,,,,,2022-06-17_13h04.53.015,Session1,2020.2.10,Win32,60,,,,,,,,,,,,,,,,,,,,,,,,,,,,,,,,,,,,,,,,,,,,,,,,,,,,,,,,,,,,,,,SoundMST/Duck_A.wav,SIMILAR,NA,,,duck,4.631,0,80,80,69,1
,,,,,,,,,,,,,,,,,2022-06-17_13h04.53.015,Session1,2020.2.10,Win32,60,,,,,,,,,,,,,,,,,,,,,,,,,,,,,,,,,,,,,,,,,,,,,,,,,,,,,,,,,,,,,,,SoundMST/DialTone.wav,NEW,NA,,,sound from the phone,6.522,0,81,81,46,1
,,,,,,,,,,,,,,,,,2022-06-17_13h04.53.015,Session1,2020.2.10,Win32,60,,,,,,,,,,,,,,,,,,,,,,,,,,,,,,,,,,,,,,,,,,,,,,,,,,,,,,,,,,,,,,,SoundMST/Baby_C.wav,NEW,NA,,,baby cooing,5.719,0,82,82,19,1
,,,,,,,,,,,,,,,,,2022-06-17_13h04.53.015,Session1,2020.2.10,Win32,60,,,,,,,,,,,,,,,,,,,,,,,,,,,,,,,,,,,,,,,,,,,,,,,,,,,,,,,,,,,,,,,SoundMST/Camera.wav,NEW,NA,,,picture being taken,3.268,0,83,83,14,1
,,,,,,,,,,,,,,,,,2022-06-17_13h04.53.015,Session1,2020.2.10,Win32,60,,,,,,,,,,,,,,,,,,,,,,,,,,,,,,,,,,,,,,,,,,,,,,,,,,,,,,,,,,,,,,,SoundMST/Siren_E.wav,NEW,NA,,,siren,4.947,0,84,84,54,1
,,,,,,,,,,,,,,,,,2022-06-17_13h04.53.015,Session1,2020.2.10,Win32,60,,,,,,,,,,,,,,,,,,,,,,,,,,,,,,,,,,,,,,,,,,,,,,,,,,,,,,,,,,,,,,,SoundMST/Cat_A.wav,NEW,NA,,,kitty cat,4.564,0,85,85,26,1
,,,,,,,,,,,,,,,,,2022-06-17_13h04.53.015,Session1,2020.2.10,Win32,60,,,,,,,,,,,,,,,,,,,,,,,,,,,,,,,,,,,,,,,,,,,,,,,,,,,,,,,,,,,,,,,SoundMST/Steam.wav,NEW,NA,,,train horn,4.148,0,86,86,9,1
,,,,,,,,,,,,,,,,,2022-06-17_13h04.53.015,Session1,2020.2.10,Win32,60,,,,,,,,,,,,,,,,,,,,,,,,,,,,,,,,,,,,,,,,,,,,,,,,,,,,,,,,,,,,,,,SoundMST/Airhorn.wav,NEW,NA,,,horn at sports event,4.783,0,87,87,27,1
,,,,,,,,,,,,,,,,,2022-06-17_13h04.53.015,Session1,2020.2.10,Win32,60,,,,,,,,,,,,,,,,,,,,,space,372.886,,,,,,,,,,,,,,,,,,,,,,,,,,,,,,,,,,,,,,,,,,,,,,,,,,,,
