VolumeContinueKey.keys,VolumeContinueKey.rt,HeadphoneContinueKey.keys,HeadphoneContinueKey.rt,CheckResp.keys,CheckResp.corr,CheckResp.rt,trials_3.thisRepN,trials_3.thisTrialN,trials_3.thisN,trials_3.thisIndex,trials_3.ran,File,Correct,participant,date,expName,psychopyVersion,OS,frameRate,Welcome0ContKey.keys,Welcome0ContKey.rt,ContinueResp.keys,ContinueResp.rt,Wel2ContinueKey.keys,Wel2ContinueKey.rt,WelcomeContinueKey2.keys,WelcomeContinueKey2.rt,Practice_resp.keys,Practice_resp.corr,Practice_resp.rt,PracticeTrials.thisRepN,PracticeTrials.thisTrialN,PracticeTrials.thisN,PracticeTrials.thisIndex,PracticeTrials.ran,SoundFile,SoundMST_File,GS_File,Type,StartTast.keys,StartTast.rt,MST_resp.keys,MST_resp.corr,MST_resp.rt,trials.thisRepN,trials.thisTrialN,trials.thisN,trials.thisIndex,trials.ran,WordCorrect,Correct_type,WordType,Condition,Attn1ContKey.keys,Attn1ContKey.rt,AttnCheckResp.text,SyllblCheckContKey.keys,SyllblCheckContKey.rt,SyllblCheckResp.keys,SyllblCheckResp.corr,SyllblCheckResp.rt,trials_2.thisRepN,trials_2.thisTrialN,trials_2.thisN,trials_2.thisIndex,trials_2.ran,Target,Word1,Word2,Word3,WordTask.thisRepN,WordTask.thisTrialN,WordTask.thisN,WordTask.thisIndex,WordTask.ran,Counterbalance.thisRepN,Counterbalance.thisTrialN,Counterbalance.thisN,Counterbalance.thisIndex,Counterbalance.ran,WordOrder,SoundOrder,key_resp.keys,key_resp.rt,WelcomeSound2ContKey.keys,WelcomeSound2ContKey.rt,PracticeSoundKey.keys,PracticeSoundKey.corr,PracticeSoundKey.rt,SoundPracticeLoop.thisRepN,SoundPracticeLoop.thisTrialN,SoundPracticeLoop.thisN,SoundPracticeLoop.thisIndex,SoundPracticeLoop.ran,SoundCorrect,Correct2,SoundType,GS_Type,Trial,MSTSoundStrtKey.keys,MSTSoundStrtKey.rt,MSTSoundKey.keys,MSTSoundKey.corr,MSTSoundKey.rt,MSTSoundLoop.thisRepN,MSTSoundLoop.thisTrialN,MSTSoundLoop.thisN,MSTSoundLoop.thisIndex,MSTSoundLoop.ran,AttnCheck2Keys.keys,AttnCheck2Keys.rt,AttnCheck2Resp.text,SoundTask.thisRepN,SoundTask.thisTrialN,SoundTask.thisN,SoundTask.thisIndex,SoundTask.ran,key_resp_4.keys,key_resp_4.rt,GuessSoundIntro2Cont.keys,GuessSoundIntro2Cont.rt,GSSubmit.keys,GSSubmit.rt,GSResponse.text,GuessSoundLoop.thisRepN,GuessSoundLoop.thisTrialN,GuessSoundLoop.thisN,GuessSoundLoop.thisIndex,GuessSoundLoop.ran,ExitKey.keys,ExitKey.rt
space,15.731195,space,61.97306,1,1,3.503405,0,0,0,1,1,Headphone/t1_2.wav,1,,2021-03-24_07h00.31.497,CombinedMST_OA,2020.2.10,Win32,60,,,,,,,,,,,,,,,,,,,,,,,,,,,,,,,,,,,,,,,,,,,,,,,,,,,,,,,,,,,,,,,,,,,,,,,,,,,,,,,,,,,,,,,,,,,,,,,,,,,,,,,,,,,,,,,,
,,,,2,1,1.59658,0,1,1,2,1,Headphone/t2_1.wav,2,,2021-03-24_07h00.31.497,CombinedMST_OA,2020.2.10,Win32,60,,,,,,,,,,,,,,,,,,,,,,,,,,,,,,,,,,,,,,,,,,,,,,,,,,,,,,,,,,,,,,,,,,,,,,,,,,,,,,,,,,,,,,,,,,,,,,,,,,,,,,,,,,,,,,,,
,,,,1,1,0.587815,0,2,2,0,1,Headphone/t1_1.wav,1,,2021-03-24_07h00.31.497,CombinedMST_OA,2020.2.10,Win32,60,,,,,,,,,,,,,,,,,,,,,,,,,,,,,,,,,,,,,,,,,,,,,,,,,,,,,,,,,,,,,,,,,,,,,,,,,,,,,,,,,,,,,,,,,,,,,,,,,,,,,,,,,,,,,,,,
,,,,3,1,1.27011,0,3,3,5,1,Headphone/t3_2.wav,3,,2021-03-24_07h00.31.497,CombinedMST_OA,2020.2.10,Win32,60,,,,,,,,,,,,,,,,,,,,,,,,,,,,,,,,,,,,,,,,,,,,,,,,,,,,,,,,,,,,,,,,,,,,,,,,,,,,,,,,,,,,,,,,,,,,,,,,,,,,,,,,,,,,,,,,
,,,,2,1,0.86757,0,4,4,3,1,Headphone/t2_2.wav,2,,2021-03-24_07h00.31.497,CombinedMST_OA,2020.2.10,Win32,60,,,,,,,,,,,,,,,,,,,,,,,,,,,,,,,,,,,,,,,,,,,,,,,,,,,,,,,,,,,,,,,,,,,,,,,,,,,,,,,,,,,,,,,,,,,,,,,,,,,,,,,,,,,,,,,,
,,,,3,1,0.74748,0,5,5,4,1,Headphone/t3_1.wav,3,,2021-03-24_07h00.31.497,CombinedMST_OA,2020.2.10,Win32,60,,,,,,,,,,,,,,,,,,,,,,,,,,,,,,,,,,,,,,,,,,,,,,,,,,,,,,,,,,,,,,,,,,,,,,,,,,,,,,,,,,,,,,,,,,,,,,,,,,,,,,,,,,,,,,,,
,,,,,,,,,,,,,2,,2021-03-24_07h00.31.497,CombinedMST_OA,2020.2.10,Win32,60,space,28.860765,space,112.59346,space,74.48745,space,29.592865,2,1,19.6147,0,0,0,0,1,Training/FO_YI_LAY.wav,,,NEW,,,,,,,,,,,,,,,,,,,,,,,,,,,,,,,,,,,,,,,,,,,,,,,,,,,,,,,,,,,,,,,,,,,,,,,,,,,,,,,,,,,,,,,,,,,,
,,,,,,,,,,,,,1,,2021-03-24_07h00.31.497,CombinedMST_OA,2020.2.10,Win32,60,,,,,,,,,1,1,15.715345,0,1,1,1,1,Training/FO_YI_LAY.wav,,,OLD,,,,,,,,,,,,,,,,,,,,,,,,,,,,,,,,,,,,,,,,,,,,,,,,,,,,,,,,,,,,,,,,,,,,,,,,,,,,,,,,,,,,,,,,,,,,
,,,,,,,,,,,,,2,,2021-03-24_07h00.31.497,CombinedMST_OA,2020.2.10,Win32,60,,,,,,,,,2,1,6.08222,0,2,2,2,1,Training/YO_BU_JAY.wav,,,NEW,,,,,,,,,,,,,,,,,,,,,,,,,,,,,,,,,,,,,,,,,,,,,,,,,,,,,,,,,,,,,,,,,,,,,,,,,,,,,,,,,,,,,,,,,,,,
,,,,,,,,,,,,,2,,2021-03-24_07h00.31.497,CombinedMST_OA,2020.2.10,Win32,60,,,,,,,,,2,1,9.28187,0,3,3,3,1,Training/JAY_YO_BU.wav,,,SIMILAR,,,,,,,,,,,,,,,,,,,,,,,,,,,,,,,,,,,,,,,,,,,,,,,,,,,,,,,,,,,,,,,,,,,,,,,,,,,,,,,,,,,,,,,,,,,,
,,,,,,,,,,,,,1,,2021-03-24_07h00.31.497,CombinedMST_OA,2020.2.10,Win32,60,,,,,,,,,1,1,3.131525,0,4,4,4,1,Training/FO_YI_LAY.wav,,,OLD,,,,,,,,,,,,,,,,,,,,,,,,,,,,,,,,,,,,,,,,,,,,,,,,,,,,,,,,,,,,,,,,,,,,,,,,,,,,,,,,,,,,,,,,,,,,
,,,,,,,,,,,,TestWords/HA_SI_JAI.wav,,,2021-03-24_07h00.31.497,CombinedMST_OA,2020.2.10,Win32,60,,,,,,,,,,,,,,,,,,,,,space,55.42863,2,1,21.81465,0,0,0,0,1,2,NEW,NEW,A,,,,,,,,,,,,,,,,,,,,,,,,,,,,,,,,,,,,,,,,,,,,,,,,,,,,,,,,,,,,,,,,,,,,,,,,,,,,,,
,,,,,,,,,,,,TestWords/KO_SU_FAI.wav,,,2021-03-24_07h00.31.497,CombinedMST_OA,2020.2.10,Win32,60,,,,,,,,,,,,,,,,,,,,,,,2,1,3.120445,0,1,1,1,1,2,NEW,NEW,A,,,,,,,,,,,,,,,,,,,,,,,,,,,,,,,,,,,,,,,,,,,,,,,,,,,,,,,,,,,,,,,,,,,,,,,,,,,,,,
,,,,,,,,,,,,TestWords/TAI_GI_SA.wav,,,2021-03-24_07h00.31.497,CombinedMST_OA,2020.2.10,Win32,60,,,,,,,,,,,,,,,,,,,,,,,2,1,1.83925,0,2,2,2,1,2,NEW,NEW,A,,,,,,,,,,,,,,,,,,,,,,,,,,,,,,,,,,,,,,,,,,,,,,,,,,,,,,,,,,,,,,,,,,,,,,,,,,,,,,
,,,,,,,,,,,,TestWords/KAI_LAY_TA.wav,,,2021-03-24_07h00.31.497,CombinedMST_OA,2020.2.10,Win32,60,,,,,,,,,,,,,,,,,,,,,,,2,1,2.39708,0,3,3,3,1,2,NEW,NEW,A,,,,,,,,,,,,,,,,,,,,,,,,,,,,,,,,,,,,,,,,,,,,,,,,,,,,,,,,,,,,,,,,,,,,,,,,,,,,,,
,,,,,,,,,,,,TestWords/RAY_PA_TI.wav,,,2021-03-24_07h00.31.497,CombinedMST_OA,2020.2.10,Win32,60,,,,,,,,,,,,,,,,,,,,,,,2,1,1.438845,0,4,4,4,1,2,NEW,NEW,A,,,,,,,,,,,,,,,,,,,,,,,,,,,,,,,,,,,,,,,,,,,,,,,,,,,,,,,,,,,,,,,,,,,,,,,,,,,,,,
,,,,,,,,,,,,TestWords/KO_SU_FAI.wav,,,2021-03-24_07h00.31.497,CombinedMST_OA,2020.2.10,Win32,60,,,,,,,,,,,,,,,,,,,,,,,1,1,1.96718,0,5,5,5,1,1,OLD,OLD,A,,,,,,,,,,,,,,,,,,,,,,,,,,,,,,,,,,,,,,,,,,,,,,,,,,,,,,,,,,,,,,,,,,,,,,,,,,,,,,
,,,,,,,,,,,,TestWords/TAI_SA_GI.wav,,,2021-03-24_07h00.31.497,CombinedMST_OA,2020.2.10,Win32,60,,,,,,,,,,,,,,,,,,,,,,,1,0,1.40113,0,6,6,6,1,2,NEW,SIMILAR,A,,,,,,,,,,,,,,,,,,,,,,,,,,,,,,,,,,,,,,,,,,,,,,,,,,,,,,,,,,,,,,,,,,,,,,,,,,,,,,
,,,,,,,,,,,,TestWords/KAI_LAY_TA.wav,,,2021-03-24_07h00.31.497,CombinedMST_OA,2020.2.10,Win32,60,,,,,,,,,,,,,,,,,,,,,,,2,0,1.402485,0,7,7,7,1,1,OLD,OLD,A,,,,,,,,,,,,,,,,,,,,,,,,,,,,,,,,,,,,,,,,,,,,,,,,,,,,,,,,,,,,,,,,,,,,,,,,,,,,,,
,,,,,,,,,,,,TestWords/NA_WAI_VU.wav,,,2021-03-24_07h00.31.497,CombinedMST_OA,2020.2.10,Win32,60,,,,,,,,,,,,,,,,,,,,,,,2,1,1.085295,0,8,8,8,1,2,NEW,NEW,A,,,,,,,,,,,,,,,,,,,,,,,,,,,,,,,,,,,,,,,,,,,,,,,,,,,,,,,,,,,,,,,,,,,,,,,,,,,,,,
,,,,,,,,,,,,TestWords/KO_SU_FAI.wav,,,2021-03-24_07h00.31.497,CombinedMST_OA,2020.2.10,Win32,60,,,,,,,,,,,,,,,,,,,,,,,2,0,2.145395,0,9,9,9,1,1,OLD,OLD,A,,,,,,,,,,,,,,,,,,,,,,,,,,,,,,,,,,,,,,,,,,,,,,,,,,,,,,,,,,,,,,,,,,,,,,,,,,,,,,
,,,,,,,,,,,,TestWords/RAY_PA_TI.wav,,,2021-03-24_07h00.31.497,CombinedMST_OA,2020.2.10,Win32,60,,,,,,,,,,,,,,,,,,,,,,,2,0,1.801915,0,10,10,10,1,1,OLD,OLD,A,,,,,,,,,,,,,,,,,,,,,,,,,,,,,,,,,,,,,,,,,,,,,,,,,,,,,,,,,,,,,,,,,,,,,,,,,,,,,,
,,,,,,,,,,,,TestWords/GI_SA_TAI.wav,,,2021-03-24_07h00.31.497,CombinedMST_OA,2020.2.10,Win32,60,,,,,,,,,,,,,,,,,,,,,,,1,0,2.426635,0,11,11,11,1,2,NEW,SIMILAR,A,,,,,,,,,,,,,,,,,,,,,,,,,,,,,,,,,,,,,,,,,,,,,,,,,,,,,,,,,,,,,,,,,,,,,,,,,,,,,,
,,,,,,,,,,,,TestWords/WAI_VU_NA.wav,,,2021-03-24_07h00.31.497,CombinedMST_OA,2020.2.10,Win32,60,,,,,,,,,,,,,,,,,,,,,,,2,1,1.459045,0,12,12,12,1,2,NEW,SIMILAR,A,,,,,,,,,,,,,,,,,,,,,,,,,,,,,,,,,,,,,,,,,,,,,,,,,,,,,,,,,,,,,,,,,,,,,,,,,,,,,,
,,,,,,,,,,,,TestWords/KAI_LAY_TA.wav,,,2021-03-24_07h00.31.497,CombinedMST_OA,2020.2.10,Win32,60,,,,,,,,,,,,,,,,,,,,,,,2,0,1.274605,0,13,13,13,1,1,OLD,OLD,A,,,,,,,,,,,,,,,,,,,,,,,,,,,,,,,,,,,,,,,,,,,,,,,,,,,,,,,,,,,,,,,,,,,,,,,,,,,,,,
,,,,,,,,,,,,TestWords/SI_VAI_CHU.wav,,,2021-03-24_07h00.31.497,CombinedMST_OA,2020.2.10,Win32,60,,,,,,,,,,,,,,,,,,,,,,,2,1,2.046875,0,14,14,14,1,2,NEW,NEW,A,,,,,,,,,,,,,,,,,,,,,,,,,,,,,,,,,,,,,,,,,,,,,,,,,,,,,,,,,,,,,,,,,,,,,,,,,,,,,,
,,,,,,,,,,,,TestWords/GI_TAI_SA.wav,,,2021-03-24_07h00.31.497,CombinedMST_OA,2020.2.10,Win32,60,,,,,,,,,,,,,,,,,,,,,,,2,1,3.24245,0,15,15,15,1,2,NEW,SIMILAR,A,,,,,,,,,,,,,,,,,,,,,,,,,,,,,,,,,,,,,,,,,,,,,,,,,,,,,,,,,,,,,,,,,,,,,,,,,,,,,,
,,,,,,,,,,,,TestWords/KO_SU_FAI.wav,,,2021-03-24_07h00.31.497,CombinedMST_OA,2020.2.10,Win32,60,,,,,,,,,,,,,,,,,,,,,,,1,1,2.304145,0,16,16,16,1,1,OLD,OLD,A,,,,,,,,,,,,,,,,,,,,,,,,,,,,,,,,,,,,,,,,,,,,,,,,,,,,,,,,,,,,,,,,,,,,,,,,,,,,,,
,,,,,,,,,,,,TestWords/DA_CHU_VAI.wav,,,2021-03-24_07h00.31.497,CombinedMST_OA,2020.2.10,Win32,60,,,,,,,,,,,,,,,,,,,,,,,2,1,1.756015,0,17,17,17,1,2,NEW,NEW,A,,,,,,,,,,,,,,,,,,,,,,,,,,,,,,,,,,,,,,,,,,,,,,,,,,,,,,,,,,,,,,,,,,,,,,,,,,,,,,
,,,,,,,,,,,,TestWords/RAY_PA_TI.wav,,,2021-03-24_07h00.31.497,CombinedMST_OA,2020.2.10,Win32,60,,,,,,,,,,,,,,,,,,,,,,,2,0,3.653045,0,18,18,18,1,1,OLD,OLD,A,,,,,,,,,,,,,,,,,,,,,,,,,,,,,,,,,,,,,,,,,,,,,,,,,,,,,,,,,,,,,,,,,,,,,,,,,,,,,,
,,,,,,,,,,,,TestWords/KAI_LAY_TA.wav,,,2021-03-24_07h00.31.497,CombinedMST_OA,2020.2.10,Win32,60,,,,,,,,,,,,,,,,,,,,,,,1,1,7.601475,0,19,19,19,1,1,OLD,OLD,A,,,,,,,,,,,,,,,,,,,,,,,,,,,,,,,,,,,,,,,,,,,,,,,,,,,,,,,,,,,,,,,,,,,,,,,,,,,,,,
,,,,,,,,,,,,TestWords/WAI_NA_VU.wav,,,2021-03-24_07h00.31.497,CombinedMST_OA,2020.2.10,Win32,60,,,,,,,,,,,,,,,,,,,,,,,2,1,1.440935,0,20,20,20,1,2,NEW,SIMILAR,A,,,,,,,,,,,,,,,,,,,,,,,,,,,,,,,,,,,,,,,,,,,,,,,,,,,,,,,,,,,,,,,,,,,,,,,,,,,,,,
,,,,,,,,,,,,TestWords/KO_SU_FAI.wav,,,2021-03-24_07h00.31.497,CombinedMST_OA,2020.2.10,Win32,60,,,,,,,,,,,,,,,,,,,,,,,1,1,1.205695,0,21,21,21,1,1,OLD,OLD,A,,,,,,,,,,,,,,,,,,,,,,,,,,,,,,,,,,,,,,,,,,,,,,,,,,,,,,,,,,,,,,,,,,,,,,,,,,,,,,
,,,,,,,,,,,,TestWords/SA_TAI_GI.wav,,,2021-03-24_07h00.31.497,CombinedMST_OA,2020.2.10,Win32,60,,,,,,,,,,,,,,,,,,,,,,,1,0,2.599935,0,22,22,22,1,2,NEW,SIMILAR,A,,,,,,,,,,,,,,,,,,,,,,,,,,,,,,,,,,,,,,,,,,,,,,,,,,,,,,,,,,,,,,,,,,,,,,,,,,,,,,
,,,,,,,,,,,,TestWords/RAY_PA_TI.wav,,,2021-03-24_07h00.31.497,CombinedMST_OA,2020.2.10,Win32,60,,,,,,,,,,,,,,,,,,,,,,,1,1,1.729645,0,23,23,23,1,1,OLD,OLD,A,,,,,,,,,,,,,,,,,,,,,,,,,,,,,,,,,,,,,,,,,,,,,,,,,,,,,,,,,,,,,,,,,,,,,,,,,,,,,,
,,,,,,,,,,,,TestWords/VU_NA_WAI.wav,,,2021-03-24_07h00.31.497,CombinedMST_OA,2020.2.10,Win32,60,,,,,,,,,,,,,,,,,,,,,,,2,1,1.410335,0,24,24,24,1,2,NEW,SIMILAR,A,,,,,,,,,,,,,,,,,,,,,,,,,,,,,,,,,,,,,,,,,,,,,,,,,,,,,,,,,,,,,,,,,,,,,,,,,,,,,,
,,,,,,,,,,,,TestWords/KAI_LAY_TA.wav,,,2021-03-24_07h00.31.497,CombinedMST_OA,2020.2.10,Win32,60,,,,,,,,,,,,,,,,,,,,,,,2,0,1.77488,0,25,25,25,1,1,OLD,OLD,A,,,,,,,,,,,,,,,,,,,,,,,,,,,,,,,,,,,,,,,,,,,,,,,,,,,,,,,,,,,,,,,,,,,,,,,,,,,,,,
,,,,,,,,,,,,TestWords/WAI_RO_JU.wav,,,2021-03-24_07h00.31.497,CombinedMST_OA,2020.2.10,Win32,60,,,,,,,,,,,,,,,,,,,,,,,2,1,2.665565,0,26,26,26,1,2,NEW,NEW,A,,,,,,,,,,,,,,,,,,,,,,,,,,,,,,,,,,,,,,,,,,,,,,,,,,,,,,,,,,,,,,,,,,,,,,,,,,,,,,
,,,,,,,,,,,,TestWords/KO_SU_FAI.wav,,,2021-03-24_07h00.31.497,CombinedMST_OA,2020.2.10,Win32,60,,,,,,,,,,,,,,,,,,,,,,,1,1,0.95031,0,27,27,27,1,1,OLD,OLD,A,,,,,,,,,,,,,,,,,,,,,,,,,,,,,,,,,,,,,,,,,,,,,,,,,,,,,,,,,,,,,,,,,,,,,,,,,,,,,,
,,,,,,,,,,,,TestWords/SA_GI_TAI.wav,,,2021-03-24_07h00.31.497,CombinedMST_OA,2020.2.10,Win32,60,,,,,,,,,,,,,,,,,,,,,,,2,1,1.58104,0,28,28,28,1,2,NEW,SIMILAR,A,,,,,,,,,,,,,,,,,,,,,,,,,,,,,,,,,,,,,,,,,,,,,,,,,,,,,,,,,,,,,,,,,,,,,,,,,,,,,,
,,,,,,,,,,,,TestWords/RAY_PA_TI.wav,,,2021-03-24_07h00.31.497,CombinedMST_OA,2020.2.10,Win32,60,,,,,,,,,,,,,,,,,,,,,,,1,1,1.02993,0,29,29,29,1,1,OLD,OLD,A,,,,,,,,,,,,,,,,,,,,,,,,,,,,,,,,,,,,,,,,,,,,,,,,,,,,,,,,,,,,,,,,,,,,,,,,,,,,,,
,,,,,,,,,,,,TestWords/GA_MU_ZI.wav,,,2021-03-24_07h00.31.497,CombinedMST_OA,2020.2.10,Win32,60,,,,,,,,,,,,,,,,,,,,,,,2,1,2.609355,0,30,30,30,1,2,NEW,NEW,A,,,,,,,,,,,,,,,,,,,,,,,,,,,,,,,,,,,,,,,,,,,,,,,,,,,,,,,,,,,,,,,,,,,,,,,,,,,,,,
,,,,,,,,,,,,TestWords/KAI_LAY_TA.wav,,,2021-03-24_07h00.31.497,CombinedMST_OA,2020.2.10,Win32,60,,,,,,,,,,,,,,,,,,,,,,,2,0,0.97018,0,31,31,31,1,1,OLD,OLD,A,,,,,,,,,,,,,,,,,,,,,,,,,,,,,,,,,,,,,,,,,,,,,,,,,,,,,,,,,,,,,,,,,,,,,,,,,,,,,,
,,,,,,,,,,,,TestWords/VU_WAI_NA.wav,,,2021-03-24_07h00.31.497,CombinedMST_OA,2020.2.10,Win32,60,,,,,,,,,,,,,,,,,,,,,,,2,1,1.320185,0,32,32,32,1,2,NEW,SIMILAR,A,,,,,,,,,,,,,,,,,,,,,,,,,,,,,,,,,,,,,,,,,,,,,,,,,,,,,,,,,,,,,,,,,,,,,,,,,,,,,,
,,,,,,,,,,,,TestWords/RAY_PA_TI.wav,,,2021-03-24_07h00.31.497,CombinedMST_OA,2020.2.10,Win32,60,,,,,,,,,,,,,,,,,,,,,,,1,1,0.87047,0,33,33,33,1,1,OLD,OLD,A,,,,,,,,,,,,,,,,,,,,,,,,,,,,,,,,,,,,,,,,,,,,,,,,,,,,,,,,,,,,,,,,,,,,,,,,,,,,,,
,,,,,,,,,,,,TestWords/LI_KAY_BA.wav,,,2021-03-24_07h00.31.497,CombinedMST_OA,2020.2.10,Win32,60,,,,,,,,,,,,,,,,,,,,,,,2,1,1.06315,0,34,34,34,1,2,NEW,NEW,A,,,,,,,,,,,,,,,,,,,,,,,,,,,,,,,,,,,,,,,,,,,,,,,,,,,,,,,,,,,,,,,,,,,,,,,,,,,,,,
,,,,,,,,,,,,TestWords/HI_NAY_VA.wav,,,2021-03-24_07h00.31.497,CombinedMST_OA,2020.2.10,Win32,60,,,,,,,,,,,,,,,,,,,,,,,2,1,1.28332,0,35,35,35,1,2,NEW,NEW,A,,,,,,,,,,,,,,,,,,,,,,,,,,,,,,,,,,,,,,,,,,,,,,,,,,,,,,,,,,,,,,,,,,,,,,,,,,,,,,
,,,,,,,,,,,,TestWords/KO_SU_FAI.wav,,,2021-03-24_07h00.31.497,CombinedMST_OA,2020.2.10,Win32,60,,,,,,,,,,,,,,,,,,,,,,,1,1,0.999105,0,36,36,36,1,1,OLD,OLD,A,,,,,,,,,,,,,,,,,,,,,,,,,,,,,,,,,,,,,,,,,,,,,,,,,,,,,,,,,,,,,,,,,,,,,,,,,,,,,,
,,,,,,,,,,,,TestWords/NA_VU_WAI.wav,,,2021-03-24_07h00.31.497,CombinedMST_OA,2020.2.10,Win32,60,,,,,,,,,,,,,,,,,,,,,,,1,0,1.33653,0,37,37,37,1,2,NEW,SIMILAR,A,,,,,,,,,,,,,,,,,,,,,,,,,,,,,,,,,,,,,,,,,,,,,,,,,,,,,,,,,,,,,,,,,,,,,,,,,,,,,,
,,,,,,,,,,,,TestWords/GA_MU_ZI.wav,,,2021-03-24_07h00.31.497,CombinedMST_OA,2020.2.10,Win32,60,,,,,,,,,,,,,,,,,,,,,,,2,0,1.18243,0,38,38,38,1,1,OLD,OLD,A,,,,,,,,,,,,,,,,,,,,,,,,,,,,,,,,,,,,,,,,,,,,,,,,,,,,,,,,,,,,,,,,,,,,,,,,,,,,,,
,,,,,,,,,,,,TestWords/KAI_LAY_TA.wav,,,2021-03-24_07h00.31.497,CombinedMST_OA,2020.2.10,Win32,60,,,,,,,,,,,,,,,,,,,,,,,2,0,1.409265,0,39,39,39,1,1,OLD,OLD,A,,,,,,,,,,,,,,,,,,,,,,,,,,,,,,,,,,,,,,,,,,,,,,,,,,,,,,,,,,,,,,,,,,,,,,,,,,,,,,
,,,,,,,,,,,,TestWords/DAI_RU_CHI.wav,,,2021-03-24_07h00.31.497,CombinedMST_OA,2020.2.10,Win32,60,,,,,,,,,,,,,,,,,,,,,,,2,1,0.79135,0,40,40,40,1,2,NEW,NEW,A,,,,,,,,,,,,,,,,,,,,,,,,,,,,,,,,,,,,,,,,,,,,,,,,,,,,,,,,,,,,,,,,,,,,,,,,,,,,,,
,,,,,,,,,,,,TestWords/NU_CHAY_SO.wav,,,2021-03-24_07h00.31.497,CombinedMST_OA,2020.2.10,Win32,60,,,,,,,,,,,,,,,,,,,,,,,2,1,2.14018,0,41,41,41,1,2,NEW,NEW,A,,,,,,,,,,,,,,,,,,,,,,,,,,,,,,,,,,,,,,,,,,,,,,,,,,,,,,,,,,,,,,,,,,,,,,,,,,,,,,
,,,,,,,,,,,,TestWords/RAY_PA_TI.wav,,,2021-03-24_07h00.31.497,CombinedMST_OA,2020.2.10,Win32,60,,,,,,,,,,,,,,,,,,,,,,,2,0,3.38145,0,42,42,42,1,1,OLD,OLD,A,,,,,,,,,,,,,,,,,,,,,,,,,,,,,,,,,,,,,,,,,,,,,,,,,,,,,,,,,,,,,,,,,,,,,,,,,,,,,,
,,,,,,,,,,,,TestWords/BA_KAY_LI.wav,,,2021-03-24_07h00.31.497,CombinedMST_OA,2020.2.10,Win32,60,,,,,,,,,,,,,,,,,,,,,,,2,1,1.10938,0,43,43,43,1,2,NEW,SIMILAR,A,,,,,,,,,,,,,,,,,,,,,,,,,,,,,,,,,,,,,,,,,,,,,,,,,,,,,,,,,,,,,,,,,,,,,,,,,,,,,,
,,,,,,,,,,,,TestWords/KO_SU_FAI.wav,,,2021-03-24_07h00.31.497,CombinedMST_OA,2020.2.10,Win32,60,,,,,,,,,,,,,,,,,,,,,,,1,1,0.63412,0,44,44,44,1,1,OLD,OLD,A,,,,,,,,,,,,,,,,,,,,,,,,,,,,,,,,,,,,,,,,,,,,,,,,,,,,,,,,,,,,,,,,,,,,,,,,,,,,,,
,,,,,,,,,,,,TestWords/GA_MU_ZI.wav,,,2021-03-24_07h00.31.497,CombinedMST_OA,2020.2.10,Win32,60,,,,,,,,,,,,,,,,,,,,,,,1,1,1.01533,0,45,45,45,1,1,OLD,OLD,A,,,,,,,,,,,,,,,,,,,,,,,,,,,,,,,,,,,,,,,,,,,,,,,,,,,,,,,,,,,,,,,,,,,,,,,,,,,,,,
,,,,,,,,,,,,TestWords/CHU_LA_PAY.wav,,,2021-03-24_07h00.31.497,CombinedMST_OA,2020.2.10,Win32,60,,,,,,,,,,,,,,,,,,,,,,,2,1,1.449725,0,46,46,46,1,2,NEW,NEW,A,,,,,,,,,,,,,,,,,,,,,,,,,,,,,,,,,,,,,,,,,,,,,,,,,,,,,,,,,,,,,,,,,,,,,,,,,,,,,,
,,,,,,,,,,,,TestWords/KAI_LAY_TA.wav,,,2021-03-24_07h00.31.497,CombinedMST_OA,2020.2.10,Win32,60,,,,,,,,,,,,,,,,,,,,,,,2,0,1.0633,0,47,47,47,1,1,OLD,OLD,A,,,,,,,,,,,,,,,,,,,,,,,,,,,,,,,,,,,,,,,,,,,,,,,,,,,,,,,,,,,,,,,,,,,,,,,,,,,,,,
,,,,,,,,,,,,TestWords/DAI_RU_CHI.wav,,,2021-03-24_07h00.31.497,CombinedMST_OA,2020.2.10,Win32,60,,,,,,,,,,,,,,,,,,,,,,,1,1,0.888945,0,48,48,48,1,1,OLD,OLD,A,,,,,,,,,,,,,,,,,,,,,,,,,,,,,,,,,,,,,,,,,,,,,,,,,,,,,,,,,,,,,,,,,,,,,,,,,,,,,,
,,,,,,,,,,,,TestWords/KO_SU_FAI.wav,,,2021-03-24_07h00.31.497,CombinedMST_OA,2020.2.10,Win32,60,,,,,,,,,,,,,,,,,,,,,,,1,1,1.59513,0,49,49,49,1,1,OLD,OLD,A,,,,,,,,,,,,,,,,,,,,,,,,,,,,,,,,,,,,,,,,,,,,,,,,,,,,,,,,,,,,,,,,,,,,,,,,,,,,,,
,,,,,,,,,,,,TestWords/KAY_LI_BA.wav,,,2021-03-24_07h00.31.497,CombinedMST_OA,2020.2.10,Win32,60,,,,,,,,,,,,,,,,,,,,,,,2,1,1.236345,0,50,50,50,1,2,NEW,SIMILAR,A,,,,,,,,,,,,,,,,,,,,,,,,,,,,,,,,,,,,,,,,,,,,,,,,,,,,,,,,,,,,,,,,,,,,,,,,,,,,,,
,,,,,,,,,,,,TestWords/RAY_PA_TI.wav,,,2021-03-24_07h00.31.497,CombinedMST_OA,2020.2.10,Win32,60,,,,,,,,,,,,,,,,,,,,,,,1,1,2.41633,0,51,51,51,1,1,OLD,OLD,A,,,,,,,,,,,,,,,,,,,,,,,,,,,,,,,,,,,,,,,,,,,,,,,,,,,,,,,,,,,,,,,,,,,,,,,,,,,,,,
,,,,,,,,,,,,TestWords/KAI_LAY_TA.wav,,,2021-03-24_07h00.31.497,CombinedMST_OA,2020.2.10,Win32,60,,,,,,,,,,,,,,,,,,,,,,,2,0,1.55691,0,52,52,52,1,1,OLD,OLD,A,,,,,,,,,,,,,,,,,,,,,,,,,,,,,,,,,,,,,,,,,,,,,,,,,,,,,,,,,,,,,,,,,,,,,,,,,,,,,,
,,,,,,,,,,,,TestWords/HO_NAY_VA.wav,,,2021-03-24_07h00.31.497,CombinedMST_OA,2020.2.10,Win32,60,,,,,,,,,,,,,,,,,,,,,,,2,1,3.494115,0,53,53,53,1,2,NEW,NEW,A,,,,,,,,,,,,,,,,,,,,,,,,,,,,,,,,,,,,,,,,,,,,,,,,,,,,,,,,,,,,,,,,,,,,,,,,,,,,,,
,,,,,,,,,,,,TestWords/GA_MU_ZI.wav,,,2021-03-24_07h00.31.497,CombinedMST_OA,2020.2.10,Win32,60,,,,,,,,,,,,,,,,,,,,,,,1,1,0.851445,0,54,54,54,1,1,OLD,OLD,A,,,,,,,,,,,,,,,,,,,,,,,,,,,,,,,,,,,,,,,,,,,,,,,,,,,,,,,,,,,,,,,,,,,,,,,,,,,,,,
,,,,,,,,,,,,TestWords/DAI_RU_CHI.wav,,,2021-03-24_07h00.31.497,CombinedMST_OA,2020.2.10,Win32,60,,,,,,,,,,,,,,,,,,,,,,,1,1,1.14168,0,55,55,55,1,1,OLD,OLD,A,,,,,,,,,,,,,,,,,,,,,,,,,,,,,,,,,,,,,,,,,,,,,,,,,,,,,,,,,,,,,,,,,,,,,,,,,,,,,,
,,,,,,,,,,,,TestWords/MO_PU_DAY.wav,,,2021-03-24_07h00.31.497,CombinedMST_OA,2020.2.10,Win32,60,,,,,,,,,,,,,,,,,,,,,,,1,0,3.47104,0,56,56,56,1,2,NEW,NEW,A,,,,,,,,,,,,,,,,,,,,,,,,,,,,,,,,,,,,,,,,,,,,,,,,,,,,,,,,,,,,,,,,,,,,,,,,,,,,,,
,,,,,,,,,,,,TestWords/KO_SU_FAI.wav,,,2021-03-24_07h00.31.497,CombinedMST_OA,2020.2.10,Win32,60,,,,,,,,,,,,,,,,,,,,,,,1,1,0.74143,0,57,57,57,1,1,OLD,OLD,A,,,,,,,,,,,,,,,,,,,,,,,,,,,,,,,,,,,,,,,,,,,,,,,,,,,,,,,,,,,,,,,,,,,,,,,,,,,,,,
,,,,,,,,,,,,TestWords/KAY_BA_LI.wav,,,2021-03-24_07h00.31.497,CombinedMST_OA,2020.2.10,Win32,60,,,,,,,,,,,,,,,,,,,,,,,1,0,1.197915,0,58,58,58,1,2,NEW,SIMILAR,A,,,,,,,,,,,,,,,,,,,,,,,,,,,,,,,,,,,,,,,,,,,,,,,,,,,,,,,,,,,,,,,,,,,,,,,,,,,,,,
,,,,,,,,,,,,TestWords/RAY_PA_TI.wav,,,2021-03-24_07h00.31.497,CombinedMST_OA,2020.2.10,Win32,60,,,,,,,,,,,,,,,,,,,,,,,1,1,1.092015,0,59,59,59,1,1,OLD,OLD,A,,,,,,,,,,,,,,,,,,,,,,,,,,,,,,,,,,,,,,,,,,,,,,,,,,,,,,,,,,,,,,,,,,,,,,,,,,,,,,
,,,,,,,,,,,,TestWords/KAI_LAY_TA.wav,,,2021-03-24_07h00.31.497,CombinedMST_OA,2020.2.10,Win32,60,,,,,,,,,,,,,,,,,,,,,,,2,0,1.05181,0,60,60,60,1,1,OLD,OLD,A,,,,,,,,,,,,,,,,,,,,,,,,,,,,,,,,,,,,,,,,,,,,,,,,,,,,,,,,,,,,,,,,,,,,,,,,,,,,,,
,,,,,,,,,,,,TestWords/GA_MU_ZI.wav,,,2021-03-24_07h00.31.497,CombinedMST_OA,2020.2.10,Win32,60,,,,,,,,,,,,,,,,,,,,,,,1,1,1.09161,0,61,61,61,1,1,OLD,OLD,A,,,,,,,,,,,,,,,,,,,,,,,,,,,,,,,,,,,,,,,,,,,,,,,,,,,,,,,,,,,,,,,,,,,,,,,,,,,,,,
,,,,,,,,,,,,TestWords/DAY_PU_MO.wav,,,2021-03-24_07h00.31.497,CombinedMST_OA,2020.2.10,Win32,60,,,,,,,,,,,,,,,,,,,,,,,2,1,1.28563,0,62,62,62,1,2,NEW,SIMILAR,A,,,,,,,,,,,,,,,,,,,,,,,,,,,,,,,,,,,,,,,,,,,,,,,,,,,,,,,,,,,,,,,,,,,,,,,,,,,,,,
,,,,,,,,,,,,TestWords/DAI_RU_CHI.wav,,,2021-03-24_07h00.31.497,CombinedMST_OA,2020.2.10,Win32,60,,,,,,,,,,,,,,,,,,,,,,,1,1,1.30724,0,63,63,63,1,1,OLD,OLD,A,,,,,,,,,,,,,,,,,,,,,,,,,,,,,,,,,,,,,,,,,,,,,,,,,,,,,,,,,,,,,,,,,,,,,,,,,,,,,,
,,,,,,,,,,,,TestWords/LI_BA_KAY.wav,,,2021-03-24_07h00.31.497,CombinedMST_OA,2020.2.10,Win32,60,,,,,,,,,,,,,,,,,,,,,,,1,0,1.131895,0,64,64,64,1,2,NEW,SIMILAR,A,,,,,,,,,,,,,,,,,,,,,,,,,,,,,,,,,,,,,,,,,,,,,,,,,,,,,,,,,,,,,,,,,,,,,,,,,,,,,,
,,,,,,,,,,,,TestWords/KAI_LAY_TA.wav,,,2021-03-24_07h00.31.497,CombinedMST_OA,2020.2.10,Win32,60,,,,,,,,,,,,,,,,,,,,,,,2,0,3.12184,0,65,65,65,1,1,OLD,OLD,A,,,,,,,,,,,,,,,,,,,,,,,,,,,,,,,,,,,,,,,,,,,,,,,,,,,,,,,,,,,,,,,,,,,,,,,,,,,,,,
,,,,,,,,,,,,TestWords/KO_SU_FAI.wav,,,2021-03-24_07h00.31.497,CombinedMST_OA,2020.2.10,Win32,60,,,,,,,,,,,,,,,,,,,,,,,1,1,2.366875,0,66,66,66,1,1,OLD,OLD,A,,,,,,,,,,,,,,,,,,,,,,,,,,,,,,,,,,,,,,,,,,,,,,,,,,,,,,,,,,,,,,,,,,,,,,,,,,,,,,
,,,,,,,,,,,,TestWords/DAY_MO_PU.wav,,,2021-03-24_07h00.31.497,CombinedMST_OA,2020.2.10,Win32,60,,,,,,,,,,,,,,,,,,,,,,,1,0,1.8105,0,67,67,67,1,2,NEW,SIMILAR,A,,,,,,,,,,,,,,,,,,,,,,,,,,,,,,,,,,,,,,,,,,,,,,,,,,,,,,,,,,,,,,,,,,,,,,,,,,,,,,
,,,,,,,,,,,,TestWords/RAY_PA_TI.wav,,,2021-03-24_07h00.31.497,CombinedMST_OA,2020.2.10,Win32,60,,,,,,,,,,,,,,,,,,,,,,,1,1,3.48493,0,68,68,68,1,1,OLD,OLD,A,,,,,,,,,,,,,,,,,,,,,,,,,,,,,,,,,,,,,,,,,,,,,,,,,,,,,,,,,,,,,,,,,,,,,,,,,,,,,,
,,,,,,,,,,,,TestWords/GA_MU_ZI.wav,,,2021-03-24_07h00.31.497,CombinedMST_OA,2020.2.10,Win32,60,,,,,,,,,,,,,,,,,,,,,,,1,1,0.84525,0,69,69,69,1,1,OLD,OLD,A,,,,,,,,,,,,,,,,,,,,,,,,,,,,,,,,,,,,,,,,,,,,,,,,,,,,,,,,,,,,,,,,,,,,,,,,,,,,,,
,,,,,,,,,,,,TestWords/BA_LI_KAY.wav,,,2021-03-24_07h00.31.497,CombinedMST_OA,2020.2.10,Win32,60,,,,,,,,,,,,,,,,,,,,,,,1,0,1.155135,0,70,70,70,1,2,NEW,SIMILAR,A,,,,,,,,,,,,,,,,,,,,,,,,,,,,,,,,,,,,,,,,,,,,,,,,,,,,,,,,,,,,,,,,,,,,,,,,,,,,,,
,,,,,,,,,,,,TestWords/DAI_RU_CHI.wav,,,2021-03-24_07h00.31.497,CombinedMST_OA,2020.2.10,Win32,60,,,,,,,,,,,,,,,,,,,,,,,2,0,1.718035,0,71,71,71,1,1,OLD,OLD,A,,,,,,,,,,,,,,,,,,,,,,,,,,,,,,,,,,,,,,,,,,,,,,,,,,,,,,,,,,,,,,,,,,,,,,,,,,,,,,
,,,,,,,,,,,,TestWords/LU_HAI_BO.wav,,,2021-03-24_07h00.31.497,CombinedMST_OA,2020.2.10,Win32,60,,,,,,,,,,,,,,,,,,,,,,,2,1,1.168345,0,72,72,72,1,2,NEW,NEW,A,,,,,,,,,,,,,,,,,,,,,,,,,,,,,,,,,,,,,,,,,,,,,,,,,,,,,,,,,,,,,,,,,,,,,,,,,,,,,,
,,,,,,,,,,,,TestWords/RAY_PA_TI.wav,,,2021-03-24_07h00.31.497,CombinedMST_OA,2020.2.10,Win32,60,,,,,,,,,,,,,,,,,,,,,,,1,1,4.63606,0,73,73,73,1,1,OLD,OLD,A,,,,,,,,,,,,,,,,,,,,,,,,,,,,,,,,,,,,,,,,,,,,,,,,,,,,,,,,,,,,,,,,,,,,,,,,,,,,,,
,,,,,,,,,,,,TestWords/GA_MU_ZI.wav,,,2021-03-24_07h00.31.497,CombinedMST_OA,2020.2.10,Win32,60,,,,,,,,,,,,,,,,,,,,,,,1,1,0.7195,0,74,74,74,1,1,OLD,OLD,A,,,,,,,,,,,,,,,,,,,,,,,,,,,,,,,,,,,,,,,,,,,,,,,,,,,,,,,,,,,,,,,,,,,,,,,,,,,,,,
,,,,,,,,,,,,TestWords/MO_DAY_PU.wav,,,2021-03-24_07h00.31.497,CombinedMST_OA,2020.2.10,Win32,60,,,,,,,,,,,,,,,,,,,,,,,1,0,1.921985,0,75,75,75,1,2,NEW,SIMILAR,A,,,,,,,,,,,,,,,,,,,,,,,,,,,,,,,,,,,,,,,,,,,,,,,,,,,,,,,,,,,,,,,,,,,,,,,,,,,,,,
,,,,,,,,,,,,TestWords/DAI_RU_CHI.wav,,,2021-03-24_07h00.31.497,CombinedMST_OA,2020.2.10,Win32,60,,,,,,,,,,,,,,,,,,,,,,,1,1,1.661295,0,76,76,76,1,1,OLD,OLD,A,,,,,,,,,,,,,,,,,,,,,,,,,,,,,,,,,,,,,,,,,,,,,,,,,,,,,,,,,,,,,,,,,,,,,,,,,,,,,,
,,,,,,,,,,,,TestWords/ZO_FU_RAI.wav,,,2021-03-24_07h00.31.497,CombinedMST_OA,2020.2.10,Win32,60,,,,,,,,,,,,,,,,,,,,,,,2,1,1.04203,0,77,77,77,1,2,NEW,NEW,A,,,,,,,,,,,,,,,,,,,,,,,,,,,,,,,,,,,,,,,,,,,,,,,,,,,,,,,,,,,,,,,,,,,,,,,,,,,,,,
,,,,,,,,,,,,TestWords/NO_WA_BAY.wav,,,2021-03-24_07h00.31.497,CombinedMST_OA,2020.2.10,Win32,60,,,,,,,,,,,,,,,,,,,,,,,2,1,1.693255,0,78,78,78,1,2,NEW,NEW,A,,,,,,,,,,,,,,,,,,,,,,,,,,,,,,,,,,,,,,,,,,,,,,,,,,,,,,,,,,,,,,,,,,,,,,,,,,,,,,
,,,,,,,,,,,,TestWords/GA_MU_ZI.wav,,,2021-03-24_07h00.31.497,CombinedMST_OA,2020.2.10,Win32,60,,,,,,,,,,,,,,,,,,,,,,,1,1,0.677545,0,79,79,79,1,1,OLD,OLD,A,,,,,,,,,,,,,,,,,,,,,,,,,,,,,,,,,,,,,,,,,,,,,,,,,,,,,,,,,,,,,,,,,,,,,,,,,,,,,,
,,,,,,,,,,,,TestWords/DAI_RU_CHI.wav,,,2021-03-24_07h00.31.497,CombinedMST_OA,2020.2.10,Win32,60,,,,,,,,,,,,,,,,,,,,,,,1,1,1.1505,0,80,80,80,1,1,OLD,OLD,A,,,,,,,,,,,,,,,,,,,,,,,,,,,,,,,,,,,,,,,,,,,,,,,,,,,,,,,,,,,,,,,,,,,,,,,,,,,,,,
,,,,,,,,,,,,TestWords/PU_DAY_MO.wav,,,2021-03-24_07h00.31.497,CombinedMST_OA,2020.2.10,Win32,60,,,,,,,,,,,,,,,,,,,,,,,1,0,1.992925,0,81,81,81,1,2,NEW,SIMILAR,A,,,,,,,,,,,,,,,,,,,,,,,,,,,,,,,,,,,,,,,,,,,,,,,,,,,,,,,,,,,,,,,,,,,,,,,,,,,,,,
,,,,,,,,,,,,TestWords/RAI_ZO_FU.wav,,,2021-03-24_07h00.31.497,CombinedMST_OA,2020.2.10,Win32,60,,,,,,,,,,,,,,,,,,,,,,,2,1,1.110495,0,82,82,82,1,2,NEW,SIMILAR,A,,,,,,,,,,,,,,,,,,,,,,,,,,,,,,,,,,,,,,,,,,,,,,,,,,,,,,,,,,,,,,,,,,,,,,,,,,,,,,
,,,,,,,,,,,,TestWords/GA_MU_ZI.wav,,,2021-03-24_07h00.31.497,CombinedMST_OA,2020.2.10,Win32,60,,,,,,,,,,,,,,,,,,,,,,,1,1,0.958325,0,83,83,83,1,1,OLD,OLD,A,,,,,,,,,,,,,,,,,,,,,,,,,,,,,,,,,,,,,,,,,,,,,,,,,,,,,,,,,,,,,,,,,,,,,,,,,,,,,,
,,,,,,,,,,,,TestWords/PAI_LU_WA.wav,,,2021-03-24_07h00.31.497,CombinedMST_OA,2020.2.10,Win32,60,,,,,,,,,,,,,,,,,,,,,,,2,1,1.121455,0,84,84,84,1,2,NEW,NEW,A,,,,,,,,,,,,,,,,,,,,,,,,,,,,,,,,,,,,,,,,,,,,,,,,,,,,,,,,,,,,,,,,,,,,,,,,,,,,,,
,,,,,,,,,,,,TestWords/PU_MO_DAY.wav,,,2021-03-24_07h00.31.497,CombinedMST_OA,2020.2.10,Win32,60,,,,,,,,,,,,,,,,,,,,,,,1,0,1.44484,0,85,85,85,1,2,NEW,SIMILAR,A,,,,,,,,,,,,,,,,,,,,,,,,,,,,,,,,,,,,,,,,,,,,,,,,,,,,,,,,,,,,,,,,,,,,,,,,,,,,,,
,,,,,,,,,,,,TestWords/DAI_RU_CHI.wav,,,2021-03-24_07h00.31.497,CombinedMST_OA,2020.2.10,Win32,60,,,,,,,,,,,,,,,,,,,,,,,1,1,0.82209,0,86,86,86,1,1,OLD,OLD,A,,,,,,,,,,,,,,,,,,,,,,,,,,,,,,,,,,,,,,,,,,,,,,,,,,,,,,,,,,,,,,,,,,,,,,,,,,,,,,
,,,,,,,,,,,,TestWords/ZO_RAI_FU.wav,,,2021-03-24_07h00.31.497,CombinedMST_OA,2020.2.10,Win32,60,,,,,,,,,,,,,,,,,,,,,,,2,1,4.70295,0,87,87,87,1,2,NEW,SIMILAR,A,,,,,,,,,,,,,,,,,,,,,,,,,,,,,,,,,,,,,,,,,,,,,,,,,,,,,,,,,,,,,,,,,,,,,,,,,,,,,,
,,,,,,,,,,,,TestWords/FI_GU_CHA.wav,,,2021-03-24_07h00.31.497,CombinedMST_OA,2020.2.10,Win32,60,,,,,,,,,,,,,,,,,,,,,,,2,1,1.183945,0,88,88,88,1,2,NEW,NEW,A,,,,,,,,,,,,,,,,,,,,,,,,,,,,,,,,,,,,,,,,,,,,,,,,,,,,,,,,,,,,,,,,,,,,,,,,,,,,,,
,,,,,,,,,,,,TestWords/GA_MU_ZI.wav,,,2021-03-24_07h00.31.497,CombinedMST_OA,2020.2.10,Win32,60,,,,,,,,,,,,,,,,,,,,,,,1,1,0.94802,0,89,89,89,1,1,OLD,OLD,A,,,,,,,,,,,,,,,,,,,,,,,,,,,,,,,,,,,,,,,,,,,,,,,,,,,,,,,,,,,,,,,,,,,,,,,,,,,,,,
,,,,,,,,,,,,TestWords/DAI_RU_CHI.wav,,,2021-03-24_07h00.31.497,CombinedMST_OA,2020.2.10,Win32,60,,,,,,,,,,,,,,,,,,,,,,,1,1,1.28703,0,90,90,90,1,1,OLD,OLD,A,,,,,,,,,,,,,,,,,,,,,,,,,,,,,,,,,,,,,,,,,,,,,,,,,,,,,,,,,,,,,,,,,,,,,,,,,,,,,,
,,,,,,,,,,,,TestWords/FU_RAI_ZO.wav,,,2021-03-24_07h00.31.497,CombinedMST_OA,2020.2.10,Win32,60,,,,,,,,,,,,,,,,,,,,,,,2,1,1.41268,0,91,91,91,1,2,NEW,SIMILAR,A,,,,,,,,,,,,,,,,,,,,,,,,,,,,,,,,,,,,,,,,,,,,,,,,,,,,,,,,,,,,,,,,,,,,,,,,,,,,,,
,,,,,,,,,,,,TestWords/GU_CHAI_PI.wav,,,2021-03-24_07h00.31.497,CombinedMST_OA,2020.2.10,Win32,60,,,,,,,,,,,,,,,,,,,,,,,2,1,1.235145,0,92,92,92,1,2,NEW,NEW,A,,,,,,,,,,,,,,,,,,,,,,,,,,,,,,,,,,,,,,,,,,,,,,,,,,,,,,,,,,,,,,,,,,,,,,,,,,,,,,
,,,,,,,,,,,,TestWords/GA_MU_ZI.wav,,,2021-03-24_07h00.31.497,CombinedMST_OA,2020.2.10,Win32,60,,,,,,,,,,,,,,,,,,,,,,,1,1,0.691455,0,93,93,93,1,1,OLD,OLD,A,,,,,,,,,,,,,,,,,,,,,,,,,,,,,,,,,,,,,,,,,,,,,,,,,,,,,,,,,,,,,,,,,,,,,,,,,,,,,,
,,,,,,,,,,,,TestWords/DAI_RU_CHI.wav,,,2021-03-24_07h00.31.497,CombinedMST_OA,2020.2.10,Win32,60,,,,,,,,,,,,,,,,,,,,,,,1,1,1.40115,0,94,94,94,1,1,OLD,OLD,A,,,,,,,,,,,,,,,,,,,,,,,,,,,,,,,,,,,,,,,,,,,,,,,,,,,,,,,,,,,,,,,,,,,,,,,,,,,,,,
,,,,,,,,,,,,TestWords/FU_ZO_RAI.wav,,,2021-03-24_07h00.31.497,CombinedMST_OA,2020.2.10,Win32,60,,,,,,,,,,,,,,,,,,,,,,,1,0,1.174845,0,95,95,95,1,2,NEW,SIMILAR,A,,,,,,,,,,,,,,,,,,,,,,,,,,,,,,,,,,,,,,,,,,,,,,,,,,,,,,,,,,,,,,,,,,,,,,,,,,,,,,
,,,,,,,,,,,,TestWords/VAI_HO_LA.wav,,,2021-03-24_07h00.31.497,CombinedMST_OA,2020.2.10,Win32,60,,,,,,,,,,,,,,,,,,,,,,,2,1,1.307865,0,96,96,96,1,2,NEW,NEW,A,,,,,,,,,,,,,,,,,,,,,,,,,,,,,,,,,,,,,,,,,,,,,,,,,,,,,,,,,,,,,,,,,,,,,,,,,,,,,,
,,,,,,,,,,,,TestWords/DAI_RU_CHI.wav,,,2021-03-24_07h00.31.497,CombinedMST_OA,2020.2.10,Win32,60,,,,,,,,,,,,,,,,,,,,,,,1,1,0.735305,0,97,97,97,1,1,OLD,OLD,A,,,,,,,,,,,,,,,,,,,,,,,,,,,,,,,,,,,,,,,,,,,,,,,,,,,,,,,,,,,,,,,,,,,,,,,,,,,,,,
,,,,,,,,,,,,TestWords/LA_ZAY_CHAI.wav,,,2021-03-24_07h00.31.497,CombinedMST_OA,2020.2.10,Win32,60,,,,,,,,,,,,,,,,,,,,,,,2,1,1.401865,0,98,98,98,1,2,NEW,NEW,A,,,,,,,,,,,,,,,,,,,,,,,,,,,,,,,,,,,,,,,,,,,,,,,,,,,,,,,,,,,,,,,,,,,,,,,,,,,,,,
,,,,,,,,,,,,TestWords/RAI_FU_ZO.wav,,,2021-03-24_07h00.31.497,CombinedMST_OA,2020.2.10,Win32,60,,,,,,,,,,,,,,,,,,,,,,,1,0,1.16672,0,99,99,99,1,2,NEW,SIMILAR,A,,,,,,,,,,,,,,,,,,,,,,,,,,,,,,,,,,,,,,,,,,,,,,,,,,,,,,,,,,,,,,,,,,,,,,,,,,,,,,
,,,,,,,,,,,,,2,,2021-03-24_07h00.31.497,CombinedMST_OA,2020.2.10,Win32,60,,,,,,,,,,,,,,,,,SyllableCheck/KAY.wav,,,,,,,,,,,,,,,,,,return,45.11812,violet ,space,22.96673,3,0,5.569515,0,0,0,2,1,KAY,KEE,KAY,HAY,,,,,,,,,,,,,,,,,,,,,,,,,,,,,,,,,,,,,,,,,,,,,,,,,,,,,,,,,,,,,
,,,,,,,,,,,,,2,,2021-03-24_07h00.31.497,CombinedMST_OA,2020.2.10,Win32,60,,,,,,,,,,,,,,,,,SyllableCheck/SU.wav,,,,,,,,,,,,,,,,,,,,,,,2,1,2.60328,0,1,1,1,1,SU,SO,SU,ZU,,,,,,,,,,,,,,,,,,,,,,,,,,,,,,,,,,,,,,,,,,,,,,,,,,,,,,,,,,,,,
,,,,,,,,,,,,,3,,2021-03-24_07h00.31.497,CombinedMST_OA,2020.2.10,Win32,60,,,,,,,,,,,,,,,,,SyllableCheck/BA.wav,,,,,,,,,,,,,,,,,,,,,,,1,0,1.845855,0,2,2,4,1,BA,PA,BEE,BA,,,,,,,,,,,,,,,,,,,,,,,,,,,,,,,,,,,,,,,,,,,,,,,,,,,,,,,,,,,,,
,,,,,,,,,,,,,1,,2021-03-24_07h00.31.497,CombinedMST_OA,2020.2.10,Win32,60,,,,,,,,,,,,,,,,,SyllableCheck/TI.wav,,,,,,,,,,,,,,,,,,,,,,,2,0,2.49555,0,3,3,0,1,TI,TEE,DEE,SEE,,,,,,,,,,,,,,,,,,,,,,,,,,,,,,,,,,,,,,,,,,,,,,,,,,,,,,,,,,,,,
,,,,,,,,,,,,,3,,2021-03-24_07h00.31.497,CombinedMST_OA,2020.2.10,Win32,60,,,,,,,,,,,,,,,,,SyllableCheck/FU.wav,,,,,,,,,,,,,,,,,,,,,,,3,1,1.65108,0,4,4,3,1,FU,VU,FO,FU,,,,,,,,,,,,,,,,,,,,,,,,,,,,,,,,,,,,,,,,,,,,,,,,,,,,,,,,,,,,,
,,,,,,,,,,,,,,,2021-03-24_07h00.31.497,CombinedMST_OA,2020.2.10,Win32,60,,,,,,,,,,,,,,,,,,,,,,,,,,,,,,,,,,,,,,,,,,,,,,,,,,,,0,0,0,0,1,,,,,,,,,,,,,,,,,,,,,,,,,,,,,,,,,,,,,,,,,,,,,,,,,,,,,,,,
,,,,,,,,,,,,,,,2021-03-24_07h00.31.497,CombinedMST_OA,2020.2.10,Win32,60,,,,,,,,,,,,,,,,,,,,,,,,,,,,,,,,,,,,,,,,,,,,,,,,,,,,,,,,,0,0,0,0,1,1,0,,,,,,,,,,,,,,,,,,,,,,,,,,,,,,,,,,,,,,,,,,,,,,,,,
,,,,,,,,,,,,,,,2021-03-24_07h00.31.497,CombinedMST_OA,2020.2.10,Win32,60,space,20.90672,,,,,space,20.99148,,,,,,,,,,Practice/Seagull_A.wav,,,,,,,,,,,,,,,,,,,,,,,,,,,,,,,,,,,,,,,,,,,,,,space,25.54989,space,13.724565,2,1,4.3434,0,0,0,0,1,2,3,NEW,,Practice,,,,,,,,,,,,,,,,,,,,,,,,,,,,,,,,
,,,,,,,,,,,,,,,2021-03-24_07h00.31.497,CombinedMST_OA,2020.2.10,Win32,60,,,,,,,,,,,,,,,,,,Practice/Skid_B.wav,,,,,,,,,,,,,,,,,,,,,,,,,,,,,,,,,,,,,,,,,,,,,,,,,,2,1,2.855375,0,1,1,1,1,2,3,NEW,,Practice,,,,,,,,,,,,,,,,,,,,,,,,,,,,,,,,
,,,,,,,,,,,,,,,2021-03-24_07h00.31.497,CombinedMST_OA,2020.2.10,Win32,60,,,,,,,,,,,,,,,,,,Practice/Seagull_A.wav,,,,,,,,,,,,,,,,,,,,,,,,,,,,,,,,,,,,,,,,,,,,,,,,,,1,1,2.0905,0,2,2,2,1,1,1,OLD,,Practice,,,,,,,,,,,,,,,,,,,,,,,,,,,,,,,,
,,,,,,,,,,,,,,,2021-03-24_07h00.31.497,CombinedMST_OA,2020.2.10,Win32,60,,,,,,,,,,,,,,,,,,Practice/Gargle_A.wav,,,,,,,,,,,,,,,,,,,,,,,,,,,,,,,,,,,,,,,,,,,,,,,,,,2,1,2.926655,0,3,3,3,1,2,3,NEW,,Practice,,,,,,,,,,,,,,,,,,,,,,,,,,,,,,,,
,,,,,,,,,,,,,,,2021-03-24_07h00.31.497,CombinedMST_OA,2020.2.10,Win32,60,,,,,,,,,,,,,,,,,,Practice/Gargle_B.wav,,,,,,,,,,,,,,,,,,,,,,,,,,,,,,,,,,,,,,,,,,,,,,,,,,2,1,3.57166,0,4,4,4,1,2,2,SIMILAR,,Practice,,,,,,,,,,,,,,,,,,,,,,,,,,,,,,,,
,,,,,,,,,,,,,,,2021-03-24_07h00.31.497,CombinedMST_OA,2020.2.10,Win32,60,,,,,,,,,,,,,,,,,,SoundMST/ManWhistle.wav,,,,,,,,,,,,,,,,,,,,,,,,,,,,,,,,,,,,,,,,,,,,,,,,,,,,,,,,,,2,3,NEW,,B,space,19.18809,2,1,1.877535,0,0,0,0,1,,,,,,,,,,,,,,,,,,,,,,
,,,,,,,,,,,,,,,2021-03-24_07h00.31.497,CombinedMST_OA,2020.2.10,Win32,60,,,,,,,,,,,,,,,,,,SoundMST/Siren_E.wav,,,,,,,,,,,,,,,,,,,,,,,,,,,,,,,,,,,,,,,,,,,,,,,,,,,,,,,,,,2,3,NEW,,B,,,2,1,0.882525,0,1,1,1,1,,,,,,,,,,,,,,,,,,,,,,
,,,,,,,,,,,,,,,2021-03-24_07h00.31.497,CombinedMST_OA,2020.2.10,Win32,60,,,,,,,,,,,,,,,,,,SoundMST/Footsteps_C.wav,,,,,,,,,,,,,,,,,,,,,,,,,,,,,,,,,,,,,,,,,,,,,,,,,,,,,,,,,,2,3,NEW,,B,,,2,1,0.917455,0,2,2,2,1,,,,,,,,,,,,,,,,,,,,,,
,,,,,,,,,,,,,,,2021-03-24_07h00.31.497,CombinedMST_OA,2020.2.10,Win32,60,,,,,,,,,,,,,,,,,,SoundMST/Chicken_A.wav,,,,,,,,,,,,,,,,,,,,,,,,,,,,,,,,,,,,,,,,,,,,,,,,,,,,,,,,,,2,3,NEW,,B,,,2,1,0.817425,0,3,3,3,1,,,,,,,,,,,,,,,,,,,,,,
,,,,,,,,,,,,,,,2021-03-24_07h00.31.497,CombinedMST_OA,2020.2.10,Win32,60,,,,,,,,,,,,,,,,,,SoundMST/Phone_D.wav,,,,,,,,,,,,,,,,,,,,,,,,,,,,,,,,,,,,,,,,,,,,,,,,,,,,,,,,,,2,3,NEW,,B,,,2,1,1.19945,0,4,4,4,1,,,,,,,,,,,,,,,,,,,,,,
,,,,,,,,,,,,,,,2021-03-24_07h00.31.497,CombinedMST_OA,2020.2.10,Win32,60,,,,,,,,,,,,,,,,,,SoundMST/Cup.wav,,,,,,,,,,,,,,,,,,,,,,,,,,,,,,,,,,,,,,,,,,,,,,,,,,,,,,,,,,2,3,NEW,,B,,,2,1,0.58709,0,5,5,5,1,,,,,,,,,,,,,,,,,,,,,,
,,,,,,,,,,,,,,,2021-03-24_07h00.31.497,CombinedMST_OA,2020.2.10,Win32,60,,,,,,,,,,,,,,,,,,SoundMST/Bowlingpins.wav,,,,,,,,,,,,,,,,,,,,,,,,,,,,,,,,,,,,,,,,,,,,,,,,,,,,,,,,,,2,3,NEW,,B,,,2,1,0.62391,0,6,6,6,1,,,,,,,,,,,,,,,,,,,,,,
,,,,,,,,,,,,,,,2021-03-24_07h00.31.497,CombinedMST_OA,2020.2.10,Win32,60,,,,,,,,,,,,,,,,,,SoundMST/Bird_C.wav,,,,,,,,,,,,,,,,,,,,,,,,,,,,,,,,,,,,,,,,,,,,,,,,,,,,,,,,,,2,3,NEW,,B,,,2,1,0.83657,0,7,7,7,1,,,,,,,,,,,,,,,,,,,,,,
,,,,,,,,,,,,,,,2021-03-24_07h00.31.497,CombinedMST_OA,2020.2.10,Win32,60,,,,,,,,,,,,,,,,,,SoundMST/HairDryer_A.wav,,,,,,,,,,,,,,,,,,,,,,,,,,,,,,,,,,,,,,,,,,,,,,,,,,,,,,,,,,2,3,NEW,,B,,,2,1,0.675775,0,8,8,8,1,,,,,,,,,,,,,,,,,,,,,,
,,,,,,,,,,,,,,,2021-03-24_07h00.31.497,CombinedMST_OA,2020.2.10,Win32,60,,,,,,,,,,,,,,,,,,SoundMST/Faucet_A.wav,,,,,,,,,,,,,,,,,,,,,,,,,,,,,,,,,,,,,,,,,,,,,,,,,,,,,,,,,,2,3,NEW,,B,,,2,1,0.88709,0,9,9,9,1,,,,,,,,,,,,,,,,,,,,,,
,,,,,,,,,,,,,,,2021-03-24_07h00.31.497,CombinedMST_OA,2020.2.10,Win32,60,,,,,,,,,,,,,,,,,,SoundMST/Siren_A.wav,,,,,,,,,,,,,,,,,,,,,,,,,,,,,,,,,,,,,,,,,,,,,,,,,,,,,,,,,,2,2,SIMILAR,,B,,,2,1,0.614325,0,10,10,10,1,,,,,,,,,,,,,,,,,,,,,,
,,,,,,,,,,,,,,,2021-03-24_07h00.31.497,CombinedMST_OA,2020.2.10,Win32,60,,,,,,,,,,,,,,,,,,SoundMST/Laugh_A.wav,,,,,,,,,,,,,,,,,,,,,,,,,,,,,,,,,,,,,,,,,,,,,,,,,,,,,,,,,,2,3,NEW,,B,,,2,1,0.36405,0,11,11,11,1,,,,,,,,,,,,,,,,,,,,,,
,,,,,,,,,,,,,,,2021-03-24_07h00.31.497,CombinedMST_OA,2020.2.10,Win32,60,,,,,,,,,,,,,,,,,,SoundMST/ManWhistle.wav,,,,,,,,,,,,,,,,,,,,,,,,,,,,,,,,,,,,,,,,,,,,,,,,,,,,,,,,,,1,1,OLD,,B,,,1,1,1.21747,0,12,12,12,1,,,,,,,,,,,,,,,,,,,,,,
,,,,,,,,,,,,,,,2021-03-24_07h00.31.497,CombinedMST_OA,2020.2.10,Win32,60,,,,,,,,,,,,,,,,,,SoundMST/Cow.wav,,,,,,,,,,,,,,,,,,,,,,,,,,,,,,,,,,,,,,,,,,,,,,,,,,,,,,,,,,2,3,NEW,,B,,,2,1,0.466075,0,13,13,13,1,,,,,,,,,,,,,,,,,,,,,,
,,,,,,,,,,,,,,,2021-03-24_07h00.31.497,CombinedMST_OA,2020.2.10,Win32,60,,,,,,,,,,,,,,,,,,SoundMST/Cough_C.wav,,,,,,,,,,,,,,,,,,,,,,,,,,,,,,,,,,,,,,,,,,,,,,,,,,,,,,,,,,2,3,NEW,,B,,,2,1,1.159265,0,14,14,14,1,,,,,,,,,,,,,,,,,,,,,,
,,,,,,,,,,,,,,,2021-03-24_07h00.31.497,CombinedMST_OA,2020.2.10,Win32,60,,,,,,,,,,,,,,,,,,SoundMST/Phone_E.wav,,,,,,,,,,,,,,,,,,,,,,,,,,,,,,,,,,,,,,,,,,,,,,,,,,,,,,,,,,2,2,SIMILAR,,B,,,1,0,0.869385,0,15,15,15,1,,,,,,,,,,,,,,,,,,,,,,
,,,,,,,,,,,,,,,2021-03-24_07h00.31.497,CombinedMST_OA,2020.2.10,Win32,60,,,,,,,,,,,,,,,,,,SoundMST/Chime_B.wav,,,,,,,,,,,,,,,,,,,,,,,,,,,,,,,,,,,,,,,,,,,,,,,,,,,,,,,,,,2,3,NEW,,B,,,2,1,0.91047,0,16,16,16,1,,,,,,,,,,,,,,,,,,,,,,
,,,,,,,,,,,,,,,2021-03-24_07h00.31.497,CombinedMST_OA,2020.2.10,Win32,60,,,,,,,,,,,,,,,,,,SoundMST/Footsteps_F.wav,,,,,,,,,,,,,,,,,,,,,,,,,,,,,,,,,,,,,,,,,,,,,,,,,,,,,,,,,,2,2,SIMILAR,,B,,,2,1,0.73504,0,17,17,17,1,,,,,,,,,,,,,,,,,,,,,,
,,,,,,,,,,,,,,,2021-03-24_07h00.31.497,CombinedMST_OA,2020.2.10,Win32,60,,,,,,,,,,,,,,,,,,SoundMST/Toilet_B.wav,,,,,,,,,,,,,,,,,,,,,,,,,,,,,,,,,,,,,,,,,,,,,,,,,,,,,,,,,,2,3,NEW,,B,,,2,1,0.34304,0,18,18,18,1,,,,,,,,,,,,,,,,,,,,,,
,,,,,,,,,,,,,,,2021-03-24_07h00.31.497,CombinedMST_OA,2020.2.10,Win32,60,,,,,,,,,,,,,,,,,,SoundMST/Piano_D.wav,,,,,,,,,,,,,,,,,,,,,,,,,,,,,,,,,,,,,,,,,,,,,,,,,,,,,,,,,,2,3,NEW,,B,,,2,1,0.428955,0,19,19,19,1,,,,,,,,,,,,,,,,,,,,,,
,,,,,,,,,,,,,,,2021-03-24_07h00.31.497,CombinedMST_OA,2020.2.10,Win32,60,,,,,,,,,,,,,,,,,,SoundMST/Cup.wav,,,,,,,,,,,,,,,,,,,,,,,,,,,,,,,,,,,,,,,,,,,,,,,,,,,,,,,,,,1,1,OLD,,B,,,2,0,0.511355,0,20,20,20,1,,,,,,,,,,,,,,,,,,,,,,
,,,,,,,,,,,,,,,2021-03-24_07h00.31.497,CombinedMST_OA,2020.2.10,Win32,60,,,,,,,,,,,,,,,,,,SoundMST/HairDryer_A.wav,,,,,,,,,,,,,,,,,,,,,,,,,,,,,,,,,,,,,,,,,,,,,,,,,,,,,,,,,,1,1,OLD,,B,,,1,1,0.9665,0,21,21,21,1,,,,,,,,,,,,,,,,,,,,,,
,,,,,,,,,,,,,,,2021-03-24_07h00.31.497,CombinedMST_OA,2020.2.10,Win32,60,,,,,,,,,,,,,,,,,,SoundMST/Thunder_A.wav,,,,,,,,,,,,,,,,,,,,,,,,,,,,,,,,,,,,,,,,,,,,,,,,,,,,,,,,,,2,3,NEW,,B,,,2,1,0.35327,0,22,22,22,1,,,,,,,,,,,,,,,,,,,,,,
,,,,,,,,,,,,,,,2021-03-24_07h00.31.497,CombinedMST_OA,2020.2.10,Win32,60,,,,,,,,,,,,,,,,,,SoundMST/Chicken_A.wav,,,,,,,,,,,,,,,,,,,,,,,,,,,,,,,,,,,,,,,,,,,,,,,,,,,,,,,,,,1,1,OLD,,B,,,1,1,1.46979,0,23,23,23,1,,,,,,,,,,,,,,,,,,,,,,
,,,,,,,,,,,,,,,2021-03-24_07h00.31.497,CombinedMST_OA,2020.2.10,Win32,60,,,,,,,,,,,,,,,,,,SoundMST/Whistle_B.wav,,,,,,,,,,,,,,,,,,,,,,,,,,,,,,,,,,,,,,,,,,,,,,,,,,,,,,,,,,2,3,NEW,,B,,,2,1,0.385935,0,24,24,24,1,,,,,,,,,,,,,,,,,,,,,,
,,,,,,,,,,,,,,,2021-03-24_07h00.31.497,CombinedMST_OA,2020.2.10,Win32,60,,,,,,,,,,,,,,,,,,SoundMST/Bird_A.wav,,,,,,,,,,,,,,,,,,,,,,,,,,,,,,,,,,,,,,,,,,,,,,,,,,,,,,,,,,2,2,SIMILAR,,B,,,2,1,0.188225,0,25,25,25,1,,,,,,,,,,,,,,,,,,,,,,
,,,,,,,,,,,,,,,2021-03-24_07h00.31.497,CombinedMST_OA,2020.2.10,Win32,60,,,,,,,,,,,,,,,,,,SoundMST/Dog_H.wav,,,,,,,,,,,,,,,,,,,,,,,,,,,,,,,,,,,,,,,,,,,,,,,,,,,,,,,,,,2,3,NEW,,B,,,2,1,0.3646,0,26,26,26,1,,,,,,,,,,,,,,,,,,,,,,
,,,,,,,,,,,,,,,2021-03-24_07h00.31.497,CombinedMST_OA,2020.2.10,Win32,60,,,,,,,,,,,,,,,,,,SoundMST/Bowlingpins.wav,,,,,,,,,,,,,,,,,,,,,,,,,,,,,,,,,,,,,,,,,,,,,,,,,,,,,,,,,,1,1,OLD,,B,,,1,1,0.30981,0,27,27,27,1,,,,,,,,,,,,,,,,,,,,,,
,,,,,,,,,,,,,,,2021-03-24_07h00.31.497,CombinedMST_OA,2020.2.10,Win32,60,,,,,,,,,,,,,,,,,,SoundMST/Fireworks.wav,,,,,,,,,,,,,,,,,,,,,,,,,,,,,,,,,,,,,,,,,,,,,,,,,,,,,,,,,,2,3,NEW,,B,,,2,1,0.66579,0,28,28,28,1,,,,,,,,,,,,,,,,,,,,,,
,,,,,,,,,,,,,,,2021-03-24_07h00.31.497,CombinedMST_OA,2020.2.10,Win32,60,,,,,,,,,,,,,,,,,,SoundMST/Cow.wav,,,,,,,,,,,,,,,,,,,,,,,,,,,,,,,,,,,,,,,,,,,,,,,,,,,,,,,,,,1,1,OLD,,B,,,1,1,0.27152,0,29,29,29,1,,,,,,,,,,,,,,,,,,,,,,
,,,,,,,,,,,,,,,2021-03-24_07h00.31.497,CombinedMST_OA,2020.2.10,Win32,60,,,,,,,,,,,,,,,,,,SoundMST/Snore_C.wav,,,,,,,,,,,,,,,,,,,,,,,,,,,,,,,,,,,,,,,,,,,,,,,,,,,,,,,,,,2,3,NEW,,B,,,2,1,0.93459,0,30,30,30,1,,,,,,,,,,,,,,,,,,,,,,
,,,,,,,,,,,,,,,2021-03-24_07h00.31.497,CombinedMST_OA,2020.2.10,Win32,60,,,,,,,,,,,,,,,,,,SoundMST/Faucet_C.wav,,,,,,,,,,,,,,,,,,,,,,,,,,,,,,,,,,,,,,,,,,,,,,,,,,,,,,,,,,2,2,SIMILAR,,B,,,1,0,0.65076,0,31,31,31,1,,,,,,,,,,,,,,,,,,,,,,
,,,,,,,,,,,,,,,2021-03-24_07h00.31.497,CombinedMST_OA,2020.2.10,Win32,60,,,,,,,,,,,,,,,,,,SoundMST/Chime_A.wav,,,,,,,,,,,,,,,,,,,,,,,,,,,,,,,,,,,,,,,,,,,,,,,,,,,,,,,,,,2,2,SIMILAR,,B,,,1,0,1.718055,0,32,32,32,1,,,,,,,,,,,,,,,,,,,,,,
,,,,,,,,,,,,,,,2021-03-24_07h00.31.497,CombinedMST_OA,2020.2.10,Win32,60,,,,,,,,,,,,,,,,,,SoundMST/Cough_E.wav,,,,,,,,,,,,,,,,,,,,,,,,,,,,,,,,,,,,,,,,,,,,,,,,,,,,,,,,,,2,2,SIMILAR,,B,,,1,0,0.900925,0,33,33,33,1,,,,,,,,,,,,,,,,,,,,,,
,,,,,,,,,,,,,,,2021-03-24_07h00.31.497,CombinedMST_OA,2020.2.10,Win32,60,,,,,,,,,,,,,,,,,,SoundMST/Heartbeat.wav,,,,,,,,,,,,,,,,,,,,,,,,,,,,,,,,,,,,,,,,,,,,,,,,,,,,,,,,,,2,3,NEW,,B,,,2,1,0.86988,0,34,34,34,1,,,,,,,,,,,,,,,,,,,,,,
,,,,,,,,,,,,,,,2021-03-24_07h00.31.497,CombinedMST_OA,2020.2.10,Win32,60,,,,,,,,,,,,,,,,,,SoundMST/Laugh_D.wav,,,,,,,,,,,,,,,,,,,,,,,,,,,,,,,,,,,,,,,,,,,,,,,,,,,,,,,,,,2,2,SIMILAR,,B,,,1,0,0.702315,0,35,35,35,1,,,,,,,,,,,,,,,,,,,,,,
,,,,,,,,,,,,,,,2021-03-24_07h00.31.497,CombinedMST_OA,2020.2.10,Win32,60,,,,,,,,,,,,,,,,,,SoundMST/Cello.wav,,,,,,,,,,,,,,,,,,,,,,,,,,,,,,,,,,,,,,,,,,,,,,,,,,,,,,,,,,2,3,NEW,,B,,,2,1,0.97081,0,36,36,36,1,,,,,,,,,,,,,,,,,,,,,,
,,,,,,,,,,,,,,,2021-03-24_07h00.31.497,CombinedMST_OA,2020.2.10,Win32,60,,,,,,,,,,,,,,,,,,SoundMST/Piano_D.wav,,,,,,,,,,,,,,,,,,,,,,,,,,,,,,,,,,,,,,,,,,,,,,,,,,,,,,,,,,1,1,OLD,,B,,,1,1,0.387805,0,37,37,37,1,,,,,,,,,,,,,,,,,,,,,,
,,,,,,,,,,,,,,,2021-03-24_07h00.31.497,CombinedMST_OA,2020.2.10,Win32,60,,,,,,,,,,,,,,,,,,SoundMST/Clap_B.wav,,,,,,,,,,,,,,,,,,,,,,,,,,,,,,,,,,,,,,,,,,,,,,,,,,,,,,,,,,2,3,NEW,,B,,,2,1,0.4321,0,38,38,38,1,,,,,,,,,,,,,,,,,,,,,,
,,,,,,,,,,,,,,,2021-03-24_07h00.31.497,CombinedMST_OA,2020.2.10,Win32,60,,,,,,,,,,,,,,,,,,SoundMST/Bagpipe.wav,,,,,,,,,,,,,,,,,,,,,,,,,,,,,,,,,,,,,,,,,,,,,,,,,,,,,,,,,,2,3,NEW,,B,,,2,1,0.998385,0,39,39,39,1,,,,,,,,,,,,,,,,,,,,,,
,,,,,,,,,,,,,,,2021-03-24_07h00.31.497,CombinedMST_OA,2020.2.10,Win32,60,,,,,,,,,,,,,,,,,,SoundMST/Growl_G.wav,,,,,,,,,,,,,,,,,,,,,,,,,,,,,,,,,,,,,,,,,,,,,,,,,,,,,,,,,,2,3,NEW,,B,,,2,1,0.9891,0,40,40,40,1,,,,,,,,,,,,,,,,,,,,,,
,,,,,,,,,,,,,,,2021-03-24_07h00.31.497,CombinedMST_OA,2020.2.10,Win32,60,,,,,,,,,,,,,,,,,,SoundMST/Airplane_B.wav,,,,,,,,,,,,,,,,,,,,,,,,,,,,,,,,,,,,,,,,,,,,,,,,,,,,,,,,,,2,3,NEW,,B,,,2,1,0.437605,0,41,41,41,1,,,,,,,,,,,,,,,,,,,,,,
,,,,,,,,,,,,,,,2021-03-24_07h00.31.497,CombinedMST_OA,2020.2.10,Win32,60,,,,,,,,,,,,,,,,,,SoundMST/Toilet_B.wav,,,,,,,,,,,,,,,,,,,,,,,,,,,,,,,,,,,,,,,,,,,,,,,,,,,,,,,,,,1,1,OLD,,B,,,1,1,0.618155,0,42,42,42,1,,,,,,,,,,,,,,,,,,,,,,
,,,,,,,,,,,,,,,2021-03-24_07h00.31.497,CombinedMST_OA,2020.2.10,Win32,60,,,,,,,,,,,,,,,,,,SoundMST/Hammer_A.wav,,,,,,,,,,,,,,,,,,,,,,,,,,,,,,,,,,,,,,,,,,,,,,,,,,,,,,,,,,2,3,NEW,,B,,,2,1,0.53108,0,43,43,43,1,,,,,,,,,,,,,,,,,,,,,,
,,,,,,,,,,,,,,,2021-03-24_07h00.31.497,CombinedMST_OA,2020.2.10,Win32,60,,,,,,,,,,,,,,,,,,SoundMST/Goat_B.wav,,,,,,,,,,,,,,,,,,,,,,,,,,,,,,,,,,,,,,,,,,,,,,,,,,,,,,,,,,2,3,NEW,,B,,,2,1,0.543875,0,44,44,44,1,,,,,,,,,,,,,,,,,,,,,,
,,,,,,,,,,,,,,,2021-03-24_07h00.31.497,CombinedMST_OA,2020.2.10,Win32,60,,,,,,,,,,,,,,,,,,SoundMST/Coin_D.wav,,,,,,,,,,,,,,,,,,,,,,,,,,,,,,,,,,,,,,,,,,,,,,,,,,,,,,,,,,2,3,NEW,,B,,,2,1,0.34875,0,45,45,45,1,,,,,,,,,,,,,,,,,,,,,,
,,,,,,,,,,,,,,,2021-03-24_07h00.31.497,CombinedMST_OA,2020.2.10,Win32,60,,,,,,,,,,,,,,,,,,SoundMST/Fireworks.wav,,,,,,,,,,,,,,,,,,,,,,,,,,,,,,,,,,,,,,,,,,,,,,,,,,,,,,,,,,1,1,OLD,,B,,,2,0,2.550555,0,46,46,46,1,,,,,,,,,,,,,,,,,,,,,,
,,,,,,,,,,,,,,,2021-03-24_07h00.31.497,CombinedMST_OA,2020.2.10,Win32,60,,,,,,,,,,,,,,,,,,SoundMST/Donkey.wav,,,,,,,,,,,,,,,,,,,,,,,,,,,,,,,,,,,,,,,,,,,,,,,,,,,,,,,,,,2,3,NEW,,B,,,2,1,0.420955,0,47,47,47,1,,,,,,,,,,,,,,,,,,,,,,
,,,,,,,,,,,,,,,2021-03-24_07h00.31.497,CombinedMST_OA,2020.2.10,Win32,60,,,,,,,,,,,,,,,,,,SoundMST/Howl.wav,,,,,,,,,,,,,,,,,,,,,,,,,,,,,,,,,,,,,,,,,,,,,,,,,,,,,,,,,,2,3,NEW,,B,,,2,1,0.437935,0,48,48,48,1,,,,,,,,,,,,,,,,,,,,,,
,,,,,,,,,,,,,,,2021-03-24_07h00.31.497,CombinedMST_OA,2020.2.10,Win32,60,,,,,,,,,,,,,,,,,,SoundMST/Thunder_A.wav,,,,,,,,,,,,,,,,,,,,,,,,,,,,,,,,,,,,,,,,,,,,,,,,,,,,,,,,,,1,1,OLD,,B,,,1,1,0.542865,0,49,49,49,1,,,,,,,,,,,,,,,,,,,,,,
,,,,,,,,,,,,,,,2021-03-24_07h00.31.497,CombinedMST_OA,2020.2.10,Win32,60,,,,,,,,,,,,,,,,,,SoundMST/Whistle_C.wav,,,,,,,,,,,,,,,,,,,,,,,,,,,,,,,,,,,,,,,,,,,,,,,,,,,,,,,,,,2,2,SIMILAR,,B,,,2,1,0.469905,0,50,50,50,1,,,,,,,,,,,,,,,,,,,,,,
,,,,,,,,,,,,,,,2021-03-24_07h00.31.497,CombinedMST_OA,2020.2.10,Win32,60,,,,,,,,,,,,,,,,,,SoundMST/Helicopter_A.wav,,,,,,,,,,,,,,,,,,,,,,,,,,,,,,,,,,,,,,,,,,,,,,,,,,,,,,,,,,2,3,NEW,,B,,,2,1,0.294845,0,51,51,51,1,,,,,,,,,,,,,,,,,,,,,,
,,,,,,,,,,,,,,,2021-03-24_07h00.31.497,CombinedMST_OA,2020.2.10,Win32,60,,,,,,,,,,,,,,,,,,SoundMST/Dog_F.wav,,,,,,,,,,,,,,,,,,,,,,,,,,,,,,,,,,,,,,,,,,,,,,,,,,,,,,,,,,2,2,SIMILAR,,B,,,2,1,0.442255,0,52,52,52,1,,,,,,,,,,,,,,,,,,,,,,
,,,,,,,,,,,,,,,2021-03-24_07h00.31.497,CombinedMST_OA,2020.2.10,Win32,60,,,,,,,,,,,,,,,,,,SoundMST/Horse.wav,,,,,,,,,,,,,,,,,,,,,,,,,,,,,,,,,,,,,,,,,,,,,,,,,,,,,,,,,,2,3,NEW,,B,,,2,1,0.317025,0,53,53,53,1,,,,,,,,,,,,,,,,,,,,,,
,,,,,,,,,,,,,,,2021-03-24_07h00.31.497,CombinedMST_OA,2020.2.10,Win32,60,,,,,,,,,,,,,,,,,,SoundMST/Chomp_A.wav,,,,,,,,,,,,,,,,,,,,,,,,,,,,,,,,,,,,,,,,,,,,,,,,,,,,,,,,,,2,3,NEW,,B,,,2,1,0.446555,0,54,54,54,1,,,,,,,,,,,,,,,,,,,,,,
,,,,,,,,,,,,,,,2021-03-24_07h00.31.497,CombinedMST_OA,2020.2.10,Win32,60,,,,,,,,,,,,,,,,,,SoundMST/Heartbeat.wav,,,,,,,,,,,,,,,,,,,,,,,,,,,,,,,,,,,,,,,,,,,,,,,,,,,,,,,,,,1,1,OLD,,B,,,1,1,0.10431,0,55,55,55,1,,,,,,,,,,,,,,,,,,,,,,
,,,,,,,,,,,,,,,2021-03-24_07h00.31.497,CombinedMST_OA,2020.2.10,Win32,60,,,,,,,,,,,,,,,,,,SoundMST/Clap_C.wav,,,,,,,,,,,,,,,,,,,,,,,,,,,,,,,,,,,,,,,,,,,,,,,,,,,,,,,,,,2,2,SIMILAR,,B,,,1,0,0.431955,0,56,56,56,1,,,,,,,,,,,,,,,,,,,,,,
,,,,,,,,,,,,,,,2021-03-24_07h00.31.497,CombinedMST_OA,2020.2.10,Win32,60,,,,,,,,,,,,,,,,,,SoundMST/Crow_B.wav,,,,,,,,,,,,,,,,,,,,,,,,,,,,,,,,,,,,,,,,,,,,,,,,,,,,,,,,,,2,3,NEW,,B,,,2,1,0.486085,0,57,57,57,1,,,,,,,,,,,,,,,,,,,,,,
,,,,,,,,,,,,,,,2021-03-24_07h00.31.497,CombinedMST_OA,2020.2.10,Win32,60,,,,,,,,,,,,,,,,,,SoundMST/Growl_H.wav,,,,,,,,,,,,,,,,,,,,,,,,,,,,,,,,,,,,,,,,,,,,,,,,,,,,,,,,,,2,2,SIMILAR,,B,,,1,0,0.749605,0,58,58,58,1,,,,,,,,,,,,,,,,,,,,,,
,,,,,,,,,,,,,,,2021-03-24_07h00.31.497,CombinedMST_OA,2020.2.10,Win32,60,,,,,,,,,,,,,,,,,,SoundMST/Printer.wav,,,,,,,,,,,,,,,,,,,,,,,,,,,,,,,,,,,,,,,,,,,,,,,,,,,,,,,,,,2,3,NEW,,B,,,2,1,0.732755,0,59,59,59,1,,,,,,,,,,,,,,,,,,,,,,
,,,,,,,,,,,,,,,2021-03-24_07h00.31.497,CombinedMST_OA,2020.2.10,Win32,60,,,,,,,,,,,,,,,,,,SoundMST/Cello.wav,,,,,,,,,,,,,,,,,,,,,,,,,,,,,,,,,,,,,,,,,,,,,,,,,,,,,,,,,,1,1,OLD,,B,,,1,1,0.421775,0,60,60,60,1,,,,,,,,,,,,,,,,,,,,,,
,,,,,,,,,,,,,,,2021-03-24_07h00.31.497,CombinedMST_OA,2020.2.10,Win32,60,,,,,,,,,,,,,,,,,,SoundMST/Snore_E.wav,,,,,,,,,,,,,,,,,,,,,,,,,,,,,,,,,,,,,,,,,,,,,,,,,,,,,,,,,,2,2,SIMILAR,,B,,,2,1,0.58205,0,61,61,61,1,,,,,,,,,,,,,,,,,,,,,,
,,,,,,,,,,,,,,,2021-03-24_07h00.31.497,CombinedMST_OA,2020.2.10,Win32,60,,,,,,,,,,,,,,,,,,SoundMST/CarStart_E.wav,,,,,,,,,,,,,,,,,,,,,,,,,,,,,,,,,,,,,,,,,,,,,,,,,,,,,,,,,,2,3,NEW,,B,,,2,1,0.719445,0,62,62,62,1,,,,,,,,,,,,,,,,,,,,,,
,,,,,,,,,,,,,,,2021-03-24_07h00.31.497,CombinedMST_OA,2020.2.10,Win32,60,,,,,,,,,,,,,,,,,,SoundMST/Goat_C.wav,,,,,,,,,,,,,,,,,,,,,,,,,,,,,,,,,,,,,,,,,,,,,,,,,,,,,,,,,,2,2,SIMILAR,,B,,,2,1,0.854565,0,63,63,63,1,,,,,,,,,,,,,,,,,,,,,,
,,,,,,,,,,,,,,,2021-03-24_07h00.31.497,CombinedMST_OA,2020.2.10,Win32,60,,,,,,,,,,,,,,,,,,SoundMST/Coin_E.wav,,,,,,,,,,,,,,,,,,,,,,,,,,,,,,,,,,,,,,,,,,,,,,,,,,,,,,,,,,2,2,SIMILAR,,B,,,2,1,0.68464,0,64,64,64,1,,,,,,,,,,,,,,,,,,,,,,
,,,,,,,,,,,,,,,2021-03-24_07h00.31.497,CombinedMST_OA,2020.2.10,Win32,60,,,,,,,,,,,,,,,,,,SoundMST/Howl.wav,,,,,,,,,,,,,,,,,,,,,,,,,,,,,,,,,,,,,,,,,,,,,,,,,,,,,,,,,,1,1,OLD,,B,,,1,1,0.606605,0,65,65,65,1,,,,,,,,,,,,,,,,,,,,,,
,,,,,,,,,,,,,,,2021-03-24_07h00.31.497,CombinedMST_OA,2020.2.10,Win32,60,,,,,,,,,,,,,,,,,,SoundMST/Airplane_B.wav,,,,,,,,,,,,,,,,,,,,,,,,,,,,,,,,,,,,,,,,,,,,,,,,,,,,,,,,,,1,1,OLD,,B,,,2,0,0.481855,0,66,66,66,1,,,,,,,,,,,,,,,,,,,,,,
,,,,,,,,,,,,,,,2021-03-24_07h00.31.497,CombinedMST_OA,2020.2.10,Win32,60,,,,,,,,,,,,,,,,,,SoundMST/Mosquito_B.wav,,,,,,,,,,,,,,,,,,,,,,,,,,,,,,,,,,,,,,,,,,,,,,,,,,,,,,,,,,1,1,OLD,,B,,,2,0,0.86039,0,67,67,67,1,,,,,,,,,,,,,,,,,,,,,,
,,,,,,,,,,,,,,,2021-03-24_07h00.31.497,CombinedMST_OA,2020.2.10,Win32,60,,,,,,,,,,,,,,,,,,SoundMST/Droplet_B.wav,,,,,,,,,,,,,,,,,,,,,,,,,,,,,,,,,,,,,,,,,,,,,,,,,,,,,,,,,,2,3,NEW,,B,,,2,1,1.094275,0,68,68,68,1,,,,,,,,,,,,,,,,,,,,,,
,,,,,,,,,,,,,,,2021-03-24_07h00.31.497,CombinedMST_OA,2020.2.10,Win32,60,,,,,,,,,,,,,,,,,,SoundMST/Donkey.wav,,,,,,,,,,,,,,,,,,,,,,,,,,,,,,,,,,,,,,,,,,,,,,,,,,,,,,,,,,1,1,OLD,,B,,,1,1,0.37935,0,69,69,69,1,,,,,,,,,,,,,,,,,,,,,,
,,,,,,,,,,,,,,,2021-03-24_07h00.31.497,CombinedMST_OA,2020.2.10,Win32,60,,,,,,,,,,,,,,,,,,SoundMST/Guitar_B.wav,,,,,,,,,,,,,,,,,,,,,,,,,,,,,,,,,,,,,,,,,,,,,,,,,,,,,,,,,,2,3,NEW,,B,,,2,1,0.935155,0,70,70,70,1,,,,,,,,,,,,,,,,,,,,,,
,,,,,,,,,,,,,,,2021-03-24_07h00.31.497,CombinedMST_OA,2020.2.10,Win32,60,,,,,,,,,,,,,,,,,,SoundMST/Bagpipe.wav,,,,,,,,,,,,,,,,,,,,,,,,,,,,,,,,,,,,,,,,,,,,,,,,,,,,,,,,,,1,1,OLD,,B,,,1,1,0.602115,0,71,71,71,1,,,,,,,,,,,,,,,,,,,,,,
,,,,,,,,,,,,,,,2021-03-24_07h00.31.497,CombinedMST_OA,2020.2.10,Win32,60,,,,,,,,,,,,,,,,,,SoundMST/Hammer_A.wav,,,,,,,,,,,,,,,,,,,,,,,,,,,,,,,,,,,,,,,,,,,,,,,,,,,,,,,,,,2,3,NEW,,B,,,2,1,0.38205,0,72,72,72,1,,,,,,,,,,,,,,,,,,,,,,
,,,,,,,,,,,,,,,2021-03-24_07h00.31.497,CombinedMST_OA,2020.2.10,Win32,60,,,,,,,,,,,,,,,,,,SoundMST/Helicopter_A.wav,,,,,,,,,,,,,,,,,,,,,,,,,,,,,,,,,,,,,,,,,,,,,,,,,,,,,,,,,,1,1,OLD,,B,,,1,1,0.67759,0,73,73,73,1,,,,,,,,,,,,,,,,,,,,,,
,,,,,,,,,,,,,,,2021-03-24_07h00.31.497,CombinedMST_OA,2020.2.10,Win32,60,,,,,,,,,,,,,,,,,,SoundMST/Camera.wav,,,,,,,,,,,,,,,,,,,,,,,,,,,,,,,,,,,,,,,,,,,,,,,,,,,,,,,,,,2,3,NEW,,B,,,2,1,0.60611,0,74,74,74,1,,,,,,,,,,,,,,,,,,,,,,
,,,,,,,,,,,,,,,2021-03-24_07h00.31.497,CombinedMST_OA,2020.2.10,Win32,60,,,,,,,,,,,,,,,,,,SoundMST/Steam.wav,,,,,,,,,,,,,,,,,,,,,,,,,,,,,,,,,,,,,,,,,,,,,,,,,,,,,,,,,,2,3,NEW,,B,,,2,1,0.798085,0,75,75,75,1,,,,,,,,,,,,,,,,,,,,,,
,,,,,,,,,,,,,,,2021-03-24_07h00.31.497,CombinedMST_OA,2020.2.10,Win32,60,,,,,,,,,,,,,,,,,,SoundMST/Horse.wav,,,,,,,,,,,,,,,,,,,,,,,,,,,,,,,,,,,,,,,,,,,,,,,,,,,,,,,,,,1,1,OLD,,B,,,2,0,0.839005,0,76,76,76,1,,,,,,,,,,,,,,,,,,,,,,
,,,,,,,,,,,,,,,2021-03-24_07h00.31.497,CombinedMST_OA,2020.2.10,Win32,60,,,,,,,,,,,,,,,,,,SoundMST/Elephant_C.wav,,,,,,,,,,,,,,,,,,,,,,,,,,,,,,,,,,,,,,,,,,,,,,,,,,,,,,,,,,2,3,NEW,,B,,,2,1,0.402525,0,77,77,77,1,,,,,,,,,,,,,,,,,,,,,,
,,,,,,,,,,,,,,,2021-03-24_07h00.31.497,CombinedMST_OA,2020.2.10,Win32,60,,,,,,,,,,,,,,,,,,SoundMST/Printer.wav,,,,,,,,,,,,,,,,,,,,,,,,,,,,,,,,,,,,,,,,,,,,,,,,,,,,,,,,,,1,1,OLD,,B,,,2,0,0.51557,0,78,78,78,1,,,,,,,,,,,,,,,,,,,,,,
,,,,,,,,,,,,,,,2021-03-24_07h00.31.497,CombinedMST_OA,2020.2.10,Win32,60,,,,,,,,,,,,,,,,,,SoundMST/Crow_A.wav,,,,,,,,,,,,,,,,,,,,,,,,,,,,,,,,,,,,,,,,,,,,,,,,,,,,,,,,,,2,2,SIMILAR,,B,,,1,0,1.81828,0,79,79,79,1,,,,,,,,,,,,,,,,,,,,,,
,,,,,,,,,,,,,,,2021-03-24_07h00.31.497,CombinedMST_OA,2020.2.10,Win32,60,,,,,,,,,,,,,,,,,,SoundMST/Bubbles_A.wav,,,,,,,,,,,,,,,,,,,,,,,,,,,,,,,,,,,,,,,,,,,,,,,,,,,,,,,,,,2,3,NEW,,B,,,2,1,0.58339,0,80,80,80,1,,,,,,,,,,,,,,,,,,,,,,
,,,,,,,,,,,,,,,2021-03-24_07h00.31.497,CombinedMST_OA,2020.2.10,Win32,60,,,,,,,,,,,,,,,,,,SoundMST/Chomp_C.wav,,,,,,,,,,,,,,,,,,,,,,,,,,,,,,,,,,,,,,,,,,,,,,,,,,,,,,,,,,2,2,SIMILAR,,B,,,1,0,0.73076,0,81,81,81,1,,,,,,,,,,,,,,,,,,,,,,
,,,,,,,,,,,,,,,2021-03-24_07h00.31.497,CombinedMST_OA,2020.2.10,Win32,60,,,,,,,,,,,,,,,,,,SoundMST/Airhorn.wav,,,,,,,,,,,,,,,,,,,,,,,,,,,,,,,,,,,,,,,,,,,,,,,,,,,,,,,,,,2,3,NEW,,B,,,2,1,0.580915,0,82,82,82,1,,,,,,,,,,,,,,,,,,,,,,
,,,,,,,,,,,,,,,2021-03-24_07h00.31.497,CombinedMST_OA,2020.2.10,Win32,60,,,,,,,,,,,,,,,,,,SoundMST/Writing_A.wav,,,,,,,,,,,,,,,,,,,,,,,,,,,,,,,,,,,,,,,,,,,,,,,,,,,,,,,,,,2,3,NEW,,B,,,2,1,0.472025,0,83,83,83,1,,,,,,,,,,,,,,,,,,,,,,
,,,,,,,,,,,,,,,2021-03-24_07h00.31.497,CombinedMST_OA,2020.2.10,Win32,60,,,,,,,,,,,,,,,,,,SoundMST/Cuckoo_A.wav,,,,,,,,,,,,,,,,,,,,,,,,,,,,,,,,,,,,,,,,,,,,,,,,,,,,,,,,,,2,3,NEW,,B,,,2,1,0.532325,0,84,84,84,1,,,,,,,,,,,,,,,,,,,,,,
,,,,,,,,,,,,,,,2021-03-24_07h00.31.497,CombinedMST_OA,2020.2.10,Win32,60,,,,,,,,,,,,,,,,,,SoundMST/IceDrop.wav,,,,,,,,,,,,,,,,,,,,,,,,,,,,,,,,,,,,,,,,,,,,,,,,,,,,,,,,,,2,3,NEW,,B,,,2,1,0.503595,0,85,85,85,1,,,,,,,,,,,,,,,,,,,,,,
,,,,,,,,,,,,,,,2021-03-24_07h00.31.497,CombinedMST_OA,2020.2.10,Win32,60,,,,,,,,,,,,,,,,,,SoundMST/CarStart_D.wav,,,,,,,,,,,,,,,,,,,,,,,,,,,,,,,,,,,,,,,,,,,,,,,,,,,,,,,,,,2,2,SIMILAR,,B,,,1,0,0.51889,0,86,86,86,1,,,,,,,,,,,,,,,,,,,,,,
,,,,,,,,,,,,,,,2021-03-24_07h00.31.497,CombinedMST_OA,2020.2.10,Win32,60,,,,,,,,,,,,,,,,,,SoundMST/Baby_F.wav,,,,,,,,,,,,,,,,,,,,,,,,,,,,,,,,,,,,,,,,,,,,,,,,,,,,,,,,,,2,3,NEW,,B,,,2,1,1.05236,0,87,87,87,1,,,,,,,,,,,,,,,,,,,,,,
,,,,,,,,,,,,,,,2021-03-24_07h00.31.497,CombinedMST_OA,2020.2.10,Win32,60,,,,,,,,,,,,,,,,,,SoundMST/Puff_A.wav,,,,,,,,,,,,,,,,,,,,,,,,,,,,,,,,,,,,,,,,,,,,,,,,,,,,,,,,,,2,3,NEW,,B,,,2,1,0.704475,0,88,88,88,1,,,,,,,,,,,,,,,,,,,,,,
,,,,,,,,,,,,,,,2021-03-24_07h00.31.497,CombinedMST_OA,2020.2.10,Win32,60,,,,,,,,,,,,,,,,,,SoundMST/Droplet_B.wav,,,,,,,,,,,,,,,,,,,,,,,,,,,,,,,,,,,,,,,,,,,,,,,,,,,,,,,,,,1,1,OLD,,B,,,2,0,0.583985,0,89,89,89,1,,,,,,,,,,,,,,,,,,,,,,
,,,,,,,,,,,,,,,2021-03-24_07h00.31.497,CombinedMST_OA,2020.2.10,Win32,60,,,,,,,,,,,,,,,,,,SoundMST/Guitar_B.wav,,,,,,,,,,,,,,,,,,,,,,,,,,,,,,,,,,,,,,,,,,,,,,,,,,,,,,,,,,1,1,OLD,,B,,,1,1,0.80282,0,90,90,90,1,,,,,,,,,,,,,,,,,,,,,,
,,,,,,,,,,,,,,,2021-03-24_07h00.31.497,CombinedMST_OA,2020.2.10,Win32,60,,,,,,,,,,,,,,,,,,SoundMST/PaperRip.wav,,,,,,,,,,,,,,,,,,,,,,,,,,,,,,,,,,,,,,,,,,,,,,,,,,,,,,,,,,2,3,NEW,,B,,,2,1,1.08576,0,91,91,91,1,,,,,,,,,,,,,,,,,,,,,,
,,,,,,,,,,,,,,,2021-03-24_07h00.31.497,CombinedMST_OA,2020.2.10,Win32,60,,,,,,,,,,,,,,,,,,SoundMST/Mosquito_B.wav,,,,,,,,,,,,,,,,,,,,,,,,,,,,,,,,,,,,,,,,,,,,,,,,,,,,,,,,,,1,1,OLD,,B,,,1,1,0.43322,0,92,92,92,1,,,,,,,,,,,,,,,,,,,,,,
,,,,,,,,,,,,,,,2021-03-24_07h00.31.497,CombinedMST_OA,2020.2.10,Win32,60,,,,,,,,,,,,,,,,,,SoundMST/Trumpet_B.wav,,,,,,,,,,,,,,,,,,,,,,,,,,,,,,,,,,,,,,,,,,,,,,,,,,,,,,,,,,2,3,NEW,,B,,,2,1,0.434415,0,93,93,93,1,,,,,,,,,,,,,,,,,,,,,,
,,,,,,,,,,,,,,,2021-03-24_07h00.31.497,CombinedMST_OA,2020.2.10,Win32,60,,,,,,,,,,,,,,,,,,SoundMST/Bullfrog.wav,,,,,,,,,,,,,,,,,,,,,,,,,,,,,,,,,,,,,,,,,,,,,,,,,,,,,,,,,,2,3,NEW,,B,,,2,1,0.717465,0,94,94,94,1,,,,,,,,,,,,,,,,,,,,,,
,,,,,,,,,,,,,,,2021-03-24_07h00.31.497,CombinedMST_OA,2020.2.10,Win32,60,,,,,,,,,,,,,,,,,,SoundMST/Elephant_A.wav,,,,,,,,,,,,,,,,,,,,,,,,,,,,,,,,,,,,,,,,,,,,,,,,,,,,,,,,,,2,2,SIMILAR,,B,,,1,0,0.68457,0,95,95,95,1,,,,,,,,,,,,,,,,,,,,,,
,,,,,,,,,,,,,,,2021-03-24_07h00.31.497,CombinedMST_OA,2020.2.10,Win32,60,,,,,,,,,,,,,,,,,,SoundMST/Sneeze_B.wav,,,,,,,,,,,,,,,,,,,,,,,,,,,,,,,,,,,,,,,,,,,,,,,,,,,,,,,,,,2,3,NEW,,B,,,2,1,0.967365,0,96,96,96,1,,,,,,,,,,,,,,,,,,,,,,
,,,,,,,,,,,,,,,2021-03-24_07h00.31.497,CombinedMST_OA,2020.2.10,Win32,60,,,,,,,,,,,,,,,,,,SoundMST/Camera.wav,,,,,,,,,,,,,,,,,,,,,,,,,,,,,,,,,,,,,,,,,,,,,,,,,,,,,,,,,,1,1,OLD,,B,,,2,0,0.836895,0,97,97,97,1,,,,,,,,,,,,,,,,,,,,,,
,,,,,,,,,,,,,,,2021-03-24_07h00.31.497,CombinedMST_OA,2020.2.10,Win32,60,,,,,,,,,,,,,,,,,,SoundMST/Cat_A.wav,,,,,,,,,,,,,,,,,,,,,,,,,,,,,,,,,,,,,,,,,,,,,,,,,,,,,,,,,,2,3,NEW,,B,,,2,1,0.63621,0,98,98,98,1,,,,,,,,,,,,,,,,,,,,,,
,,,,,,,,,,,,,,,2021-03-24_07h00.31.497,CombinedMST_OA,2020.2.10,Win32,60,,,,,,,,,,,,,,,,,,SoundMST/Steam.wav,,,,,,,,,,,,,,,,,,,,,,,,,,,,,,,,,,,,,,,,,,,,,,,,,,,,,,,,,,1,1,OLD,,B,,,1,1,0.689945,0,99,99,99,1,,,,,,,,,,,,,,,,,,,,,,
,,,,,,,,,,,,,,,2021-03-24_07h00.31.497,CombinedMST_OA,2020.2.10,Win32,60,,,,,,,,,,,,,,,,,,SoundMST/Writing_C.wav,,,,,,,,,,,,,,,,,,,,,,,,,,,,,,,,,,,,,,,,,,,,,,,,,,,,,,,,,,2,2,SIMILAR,,B,,,2,1,0.452635,0,100,100,100,1,,,,,,,,,,,,,,,,,,,,,,
,,,,,,,,,,,,,,,2021-03-24_07h00.31.497,CombinedMST_OA,2020.2.10,Win32,60,,,,,,,,,,,,,,,,,,SoundMST/IceDrop.wav,,,,,,,,,,,,,,,,,,,,,,,,,,,,,,,,,,,,,,,,,,,,,,,,,,,,,,,,,,1,1,OLD,,B,,,2,0,0.518045,0,101,101,101,1,,,,,,,,,,,,,,,,,,,,,,
,,,,,,,,,,,,,,,2021-03-24_07h00.31.497,CombinedMST_OA,2020.2.10,Win32,60,,,,,,,,,,,,,,,,,,SoundMST/Slurp.wav,,,,,,,,,,,,,,,,,,,,,,,,,,,,,,,,,,,,,,,,,,,,,,,,,,,,,,,,,,2,3,NEW,,B,,,2,1,0.43396,0,102,102,102,1,,,,,,,,,,,,,,,,,,,,,,
,,,,,,,,,,,,,,,2021-03-24_07h00.31.497,CombinedMST_OA,2020.2.10,Win32,60,,,,,,,,,,,,,,,,,,SoundMST/Baby_E.wav,,,,,,,,,,,,,,,,,,,,,,,,,,,,,,,,,,,,,,,,,,,,,,,,,,,,,,,,,,2,2,SIMILAR,,B,,,2,1,0.56773,0,103,103,103,1,,,,,,,,,,,,,,,,,,,,,,
,,,,,,,,,,,,,,,2021-03-24_07h00.31.497,CombinedMST_OA,2020.2.10,Win32,60,,,,,,,,,,,,,,,,,,SoundMST/DialTone.wav,,,,,,,,,,,,,,,,,,,,,,,,,,,,,,,,,,,,,,,,,,,,,,,,,,,,,,,,,,2,3,NEW,,B,,,2,1,0.60104,0,104,104,104,1,,,,,,,,,,,,,,,,,,,,,,
,,,,,,,,,,,,,,,2021-03-24_07h00.31.497,CombinedMST_OA,2020.2.10,Win32,60,,,,,,,,,,,,,,,,,,SoundMST/Puff_A.wav,,,,,,,,,,,,,,,,,,,,,,,,,,,,,,,,,,,,,,,,,,,,,,,,,,,,,,,,,,1,1,OLD,,B,,,1,1,0.460965,0,105,105,105,1,,,,,,,,,,,,,,,,,,,,,,
,,,,,,,,,,,,,,,2021-03-24_07h00.31.497,CombinedMST_OA,2020.2.10,Win32,60,,,,,,,,,,,,,,,,,,SoundMST/Buzz.wav,,,,,,,,,,,,,,,,,,,,,,,,,,,,,,,,,,,,,,,,,,,,,,,,,,,,,,,,,,2,3,NEW,,B,,,2,1,0.748235,0,106,106,106,1,,,,,,,,,,,,,,,,,,,,,,
,,,,,,,,,,,,,,,2021-03-24_07h00.31.497,CombinedMST_OA,2020.2.10,Win32,60,,,,,,,,,,,,,,,,,,SoundMST/Airhorn.wav,,,,,,,,,,,,,,,,,,,,,,,,,,,,,,,,,,,,,,,,,,,,,,,,,,,,,,,,,,1,1,OLD,,B,,,2,0,0.38383,0,107,107,107,1,,,,,,,,,,,,,,,,,,,,,,
,,,,,,,,,,,,,,,2021-03-24_07h00.31.497,CombinedMST_OA,2020.2.10,Win32,60,,,,,,,,,,,,,,,,,,SoundMST/Sleighbells_B.wav,,,,,,,,,,,,,,,,,,,,,,,,,,,,,,,,,,,,,,,,,,,,,,,,,,,,,,,,,,2,3,NEW,,B,,,2,1,0.632815,0,108,108,108,1,,,,,,,,,,,,,,,,,,,,,,
,,,,,,,,,,,,,,,2021-03-24_07h00.31.497,CombinedMST_OA,2020.2.10,Win32,60,,,,,,,,,,,,,,,,,,SoundMST/Cuckoo_A.wav,,,,,,,,,,,,,,,,,,,,,,,,,,,,,,,,,,,,,,,,,,,,,,,,,,,,,,,,,,1,1,OLD,,B,,,1,1,0.3015,0,109,109,109,1,,,,,,,,,,,,,,,,,,,,,,
,,,,,,,,,,,,,,,2021-03-24_07h00.31.497,CombinedMST_OA,2020.2.10,Win32,60,,,,,,,,,,,,,,,,,,SoundMST/Wind_B.wav,,,,,,,,,,,,,,,,,,,,,,,,,,,,,,,,,,,,,,,,,,,,,,,,,,,,,,,,,,2,3,NEW,,B,,,2,1,0.389925,0,110,110,110,1,,,,,,,,,,,,,,,,,,,,,,
,,,,,,,,,,,,,,,2021-03-24_07h00.31.497,CombinedMST_OA,2020.2.10,Win32,60,,,,,,,,,,,,,,,,,,SoundMST/Typing.wav,,,,,,,,,,,,,,,,,,,,,,,,,,,,,,,,,,,,,,,,,,,,,,,,,,,,,,,,,,2,3,NEW,,B,,,2,1,0.455155,0,111,111,111,1,,,,,,,,,,,,,,,,,,,,,,
,,,,,,,,,,,,,,,2021-03-24_07h00.31.497,CombinedMST_OA,2020.2.10,Win32,60,,,,,,,,,,,,,,,,,,SoundMST/Bubbles_B.wav,,,,,,,,,,,,,,,,,,,,,,,,,,,,,,,,,,,,,,,,,,,,,,,,,,,,,,,,,,2,2,SIMILAR,,B,,,2,1,0.38511,0,112,112,112,1,,,,,,,,,,,,,,,,,,,,,,
,,,,,,,,,,,,,,,2021-03-24_07h00.31.497,CombinedMST_OA,2020.2.10,Win32,60,,,,,,,,,,,,,,,,,,SoundMST/Duck_A.wav,,,,,,,,,,,,,,,,,,,,,,,,,,,,,,,,,,,,,,,,,,,,,,,,,,,,,,,,,,2,3,NEW,,B,,,2,1,0.481555,0,113,113,113,1,,,,,,,,,,,,,,,,,,,,,,
,,,,,,,,,,,,,,,2021-03-24_07h00.31.497,CombinedMST_OA,2020.2.10,Win32,60,,,,,,,,,,,,,,,,,,SoundMST/Trumpet_B.wav,,,,,,,,,,,,,,,,,,,,,,,,,,,,,,,,,,,,,,,,,,,,,,,,,,,,,,,,,,1,1,OLD,,B,,,1,1,0.349725,0,114,114,114,1,,,,,,,,,,,,,,,,,,,,,,
,,,,,,,,,,,,,,,2021-03-24_07h00.31.497,CombinedMST_OA,2020.2.10,Win32,60,,,,,,,,,,,,,,,,,,SoundMST/PaperRip.wav,,,,,,,,,,,,,,,,,,,,,,,,,,,,,,,,,,,,,,,,,,,,,,,,,,,,,,,,,,1,1,OLD,,B,,,1,1,2.685525,0,115,115,115,1,,,,,,,,,,,,,,,,,,,,,,
,,,,,,,,,,,,,,,2021-03-24_07h00.31.497,CombinedMST_OA,2020.2.10,Win32,60,,,,,,,,,,,,,,,,,,SoundMST/Sneeze_B.wav,,,,,,,,,,,,,,,,,,,,,,,,,,,,,,,,,,,,,,,,,,,,,,,,,,,,,,,,,,1,1,OLD,,B,,,2,0,0.869735,0,116,116,116,1,,,,,,,,,,,,,,,,,,,,,,
,,,,,,,,,,,,,,,2021-03-24_07h00.31.497,CombinedMST_OA,2020.2.10,Win32,60,,,,,,,,,,,,,,,,,,SoundMST/Pour_B.wav,,,,,,,,,,,,,,,,,,,,,,,,,,,,,,,,,,,,,,,,,,,,,,,,,,,,,,,,,,2,3,NEW,,B,,,2,1,1.23486,0,117,117,117,1,,,,,,,,,,,,,,,,,,,,,,
,,,,,,,,,,,,,,,2021-03-24_07h00.31.497,CombinedMST_OA,2020.2.10,Win32,60,,,,,,,,,,,,,,,,,,SoundMST/Cat_A.wav,,,,,,,,,,,,,,,,,,,,,,,,,,,,,,,,,,,,,,,,,,,,,,,,,,,,,,,,,,1,1,OLD,,B,,,1,1,0.68663,0,118,118,118,1,,,,,,,,,,,,,,,,,,,,,,
,,,,,,,,,,,,,,,2021-03-24_07h00.31.497,CombinedMST_OA,2020.2.10,Win32,60,,,,,,,,,,,,,,,,,,SoundMST/Slurp.wav,,,,,,,,,,,,,,,,,,,,,,,,,,,,,,,,,,,,,,,,,,,,,,,,,,,,,,,,,,1,1,OLD,,B,,,2,0,0.68487,0,119,119,119,1,,,,,,,,,,,,,,,,,,,,,,
,,,,,,,,,,,,,,,2021-03-24_07h00.31.497,CombinedMST_OA,2020.2.10,Win32,60,,,,,,,,,,,,,,,,,,SoundMST/Bullfrog.wav,,,,,,,,,,,,,,,,,,,,,,,,,,,,,,,,,,,,,,,,,,,,,,,,,,,,,,,,,,1,1,OLD,,B,,,1,1,0.552215,0,120,120,120,1,,,,,,,,,,,,,,,,,,,,,,
,,,,,,,,,,,,,,,2021-03-24_07h00.31.497,CombinedMST_OA,2020.2.10,Win32,60,,,,,,,,,,,,,,,,,,SoundMST/Wind_B.wav,,,,,,,,,,,,,,,,,,,,,,,,,,,,,,,,,,,,,,,,,,,,,,,,,,,,,,,,,,1,1,OLD,,B,,,2,0,0.48393,0,121,121,121,1,,,,,,,,,,,,,,,,,,,,,,
,,,,,,,,,,,,,,,2021-03-24_07h00.31.497,CombinedMST_OA,2020.2.10,Win32,60,,,,,,,,,,,,,,,,,,SoundMST/Duck_B.wav,,,,,,,,,,,,,,,,,,,,,,,,,,,,,,,,,,,,,,,,,,,,,,,,,,,,,,,,,,2,2,SIMILAR,,B,,,1,0,0.468055,0,122,122,122,1,,,,,,,,,,,,,,,,,,,,,,
,,,,,,,,,,,,,,,2021-03-24_07h00.31.497,CombinedMST_OA,2020.2.10,Win32,60,,,,,,,,,,,,,,,,,,SoundMST/DialTone.wav,,,,,,,,,,,,,,,,,,,,,,,,,,,,,,,,,,,,,,,,,,,,,,,,,,,,,,,,,,1,1,OLD,,B,,,2,0,0.67193,0,123,123,123,1,,,,,,,,,,,,,,,,,,,,,,
,,,,,,,,,,,,,,,2021-03-24_07h00.31.497,CombinedMST_OA,2020.2.10,Win32,60,,,,,,,,,,,,,,,,,,SoundMST/Buzz.wav,,,,,,,,,,,,,,,,,,,,,,,,,,,,,,,,,,,,,,,,,,,,,,,,,,,,,,,,,,1,1,OLD,,B,,,1,1,0.34051,0,124,124,124,1,,,,,,,,,,,,,,,,,,,,,,
,,,,,,,,,,,,,,,2021-03-24_07h00.31.497,CombinedMST_OA,2020.2.10,Win32,60,,,,,,,,,,,,,,,,,,SoundMST/Pour_C.wav,,,,,,,,,,,,,,,,,,,,,,,,,,,,,,,,,,,,,,,,,,,,,,,,,,,,,,,,,,2,2,SIMILAR,,B,,,1,0,0.499965,0,125,125,125,1,,,,,,,,,,,,,,,,,,,,,,
,,,,,,,,,,,,,,,2021-03-24_07h00.31.497,CombinedMST_OA,2020.2.10,Win32,60,,,,,,,,,,,,,,,,,,SoundMST/Typing.wav,,,,,,,,,,,,,,,,,,,,,,,,,,,,,,,,,,,,,,,,,,,,,,,,,,,,,,,,,,1,1,OLD,,B,,,2,0,0.389775,0,126,126,126,1,,,,,,,,,,,,,,,,,,,,,,
,,,,,,,,,,,,,,,2021-03-24_07h00.31.497,CombinedMST_OA,2020.2.10,Win32,60,,,,,,,,,,,,,,,,,,SoundMST/Sleighbells_B.wav,,,,,,,,,,,,,,,,,,,,,,,,,,,,,,,,,,,,,,,,,,,,,,,,,,,,,,,,,,1,1,OLD,,B,,,2,0,0.4343,0,127,127,127,1,,,,,,,,,,,,,,,,,,,,,,
,,,,,,,,,,,,,,,2021-03-24_07h00.31.497,CombinedMST_OA,2020.2.10,Win32,60,,,,,,,,,,,,,,,,,,,,,,,,,,,,,,,,,,,,,,,,,,,,,,,,,,,,,,,,,,,,,,,,,,,,,,,,,,,,,,,,,,,,,,,,,,,return,51.737885,Kebab in a roll,0,0,0,0,1,,,,,,,,,,,,,,
,,,,,,,,,,,,,,,2021-03-24_07h00.31.497,CombinedMST_OA,2020.2.10,Win32,60,,,,,,,,,,,,,,,,,,,,,,,,,,,,,,,,,,,,,,,,,,,,,,,,,,,,,,,,,0,1,1,1,1,0,1,,,,,,,,,,,,,,,,,,,,,,,,,,,,,,,,,,,,,,,,,,,,,,,,,
,,,,,,,,,,,,,,,2021-03-24_07h00.31.497,CombinedMST_OA,2020.2.10,Win32,60,,,,,,,,,,,,,,,,,,,SoundMST/Bagpipe.wav,,,,,,,,,,,,,,,,,,,,,,,,,,,,,,,,,,,,,,,,,,,,,,,,,,,,,,,,,,,,SAME,GS,,,,,,,,,,,,,,,,,,,space,14.83736,space,32.713765,return,54.31694,instrument sound,0,0,0,69,1,,
,,,,,,,,,,,,,,,2021-03-24_07h00.31.497,CombinedMST_OA,2020.2.10,Win32,60,,,,,,,,,,,,,,,,,,,SoundMST/Steam.wav,,,,,,,,,,,,,,,,,,,,,,,,,,,,,,,,,,,,,,,,,,,,,,,,,,,,,,,,,,,,SAME,GS,,,,,,,,,,,,,,,,,,,,,,,return,65.609305, the sound of the rail vehicle,0,1,1,86,1,,
,,,,,,,,,,,,,,,2021-03-24_07h00.31.497,CombinedMST_OA,2020.2.10,Win32,60,,,,,,,,,,,,,,,,,,,SoundMST/Bubbles_B.wav,,,,,,,,,,,,,,,,,,,,,,,,,,,,,,,,,,,,,,,,,,,,,,,,,,,,,,,,,,,,SIMILAR,GS,,,,,,,,,,,,,,,,,,,,,,,return,61.132815, gurgling sound,0,2,2,21,1,,
,,,,,,,,,,,,,,,2021-03-24_07h00.31.497,CombinedMST_OA,2020.2.10,Win32,60,,,,,,,,,,,,,,,,,,,SoundMST/Footsteps_C.wav,,,,,,,,,,,,,,,,,,,,,,,,,,,,,,,,,,,,,,,,,,,,,,,,,,,,,,,,,,,,SIMILAR,GS,,,,,,,,,,,,,,,,,,,,,,,return,70.6906," sound of action, movement",0,3,3,40,1,,
,,,,,,,,,,,,,,,2021-03-24_07h00.31.497,CombinedMST_OA,2020.2.10,Win32,60,,,,,,,,,,,,,,,,,,,SoundMST/Clap_B.wav,,,,,,,,,,,,,,,,,,,,,,,,,,,,,,,,,,,,,,,,,,,,,,,,,,,,,,,,,,,,SIMILAR,GS,,,,,,,,,,,,,,,,,,,,,,,return,23.876255, applause,0,4,4,47,1,,
,,,,,,,,,,,,,,,2021-03-24_07h00.31.497,CombinedMST_OA,2020.2.10,Win32,60,,,,,,,,,,,,,,,,,,,SoundMST/CarStart_F.wav,,,,,,,,,,,,,,,,,,,,,,,,,,,,,,,,,,,,,,,,,,,,,,,,,,,,,,,,,,,,SIMILAR,GS,,,,,,,,,,,,,,,,,,,,,,,return,55.01424, starting the vehicle,0,5,5,22,1,,
,,,,,,,,,,,,,,,2021-03-24_07h00.31.497,CombinedMST_OA,2020.2.10,Win32,60,,,,,,,,,,,,,,,,,,,SoundMST/Cup.wav,,,,,,,,,,,,,,,,,,,,,,,,,,,,,,,,,,,,,,,,,,,,,,,,,,,,,,,,,,,,SAME,GS,,,,,,,,,,,,,,,,,,,,,,,return,90.209865, the sound of the edge of the glass vessel,0,6,6,68,1,,
,,,,,,,,,,,,,,,2021-03-24_07h00.31.497,CombinedMST_OA,2020.2.10,Win32,60,,,,,,,,,,,,,,,,,,,SoundMST/Bird_E.wav,,,,,,,,,,,,,,,,,,,,,,,,,,,,,,,,,,,,,,,,,,,,,,,,,,,,,,,,,,,,SIMILAR,GS,,,,,,,,,,,,,,,,,,,,,,,return,125.0561, joyful singing of a well-know winged animal,0,7,7,31,1,,
,,,,,,,,,,,,,,,2021-03-24_07h00.31.497,CombinedMST_OA,2020.2.10,Win32,60,,,,,,,,,,,,,,,,,,,SoundMST/Sleighbells_B.wav,,,,,,,,,,,,,,,,,,,,,,,,,,,,,,,,,,,,,,,,,,,,,,,,,,,,,,,,,,,,SAME,GS,,,,,,,,,,,,,,,,,,,,,,,return,56.872065, the sound of bells in a winter vehicale,0,8,8,50,1,,
,,,,,,,,,,,,,,,2021-03-24_07h00.31.497,CombinedMST_OA,2020.2.10,Win32,60,,,,,,,,,,,,,,,,,,,SoundMST/DialTone.wav,,,,,,,,,,,,,,,,,,,,,,,,,,,,,,,,,,,,,,,,,,,,,,,,,,,,,,,,,,,,SAME,GS,,,,,,,,,,,,,,,,,,,,,,,return,89.787395," Busy call, on a known device",0,9,9,54,1,,
,,,,,,,,,,,,,,,2021-03-24_07h00.31.497,CombinedMST_OA,2020.2.10,Win32,60,,,,,,,,,,,,,,,,,,,SoundMST/Coin_D.wav,,,,,,,,,,,,,,,,,,,,,,,,,,,,,,,,,,,,,,,,,,,,,,,,,,,,,,,,,,,,SIMILAR,GS,,,,,,,,,,,,,,,,,,,,,,,return,55.775995, Something shuffling,0,10,10,42,1,,
,,,,,,,,,,,,,,,2021-03-24_07h00.31.497,CombinedMST_OA,2020.2.10,Win32,60,,,,,,,,,,,,,,,,,,,SoundMST/Chomp_A.wav,,,,,,,,,,,,,,,,,,,,,,,,,,,,,,,,,,,,,,,,,,,,,,,,,,,,,,,,,,,,SIMILAR,GS,,,,,,,,,,,,,,,,,,,,,,,return,67.47372, The sound of something tasty crunching,0,11,11,36,1,,
,,,,,,,,,,,,,,,2021-03-24_07h00.31.497,CombinedMST_OA,2020.2.10,Win32,60,,,,,,,,,,,,,,,,,,,SoundMST/Mosquito_B.wav,,,,,,,,,,,,,,,,,,,,,,,,,,,,,,,,,,,,,,,,,,,,,,,,,,,,,,,,,,,,SAME,GS,,,,,,,,,,,,,,,,,,,,,,,return,89.02586, the sound of what is a summer nightmare,0,12,12,53,1,,
,,,,,,,,,,,,,,,2021-03-24_07h00.31.497,CombinedMST_OA,2020.2.10,Win32,60,,,,,,,,,,,,,,,,,,,SoundMST/Elephant_A.wav,,,,,,,,,,,,,,,,,,,,,,,,,,,,,,,,,,,,,,,,,,,,,,,,,,,,,,,,,,,,SIMILAR,GS,,,,,,,,,,,,,,,,,,,,,,,return,49.32433, mostly African animal,0,13,13,0,1,,
,,,,,,,,,,,,,,,2021-03-24_07h00.31.497,CombinedMST_OA,2020.2.10,Win32,60,,,,,,,,,,,,,,,,,,,SoundMST/Growl_G.wav,,,,,,,,,,,,,,,,,,,,,,,,,,,,,,,,,,,,,,,,,,,,,,,,,,,,,,,,,,,,SIMILAR,GS,,,,,,,,,,,,,,,,,,,,,,,return,63.783065, A reigning predatory animal,0,14,14,43,1,,
,,,,,,,,,,,,,,,2021-03-24_07h00.31.497,CombinedMST_OA,2020.2.10,Win32,60,,,,,,,,,,,,,,,,,,,SoundMST/Elephant_C.wav,,,,,,,,,,,,,,,,,,,,,,,,,,,,,,,,,,,,,,,,,,,,,,,,,,,,,,,,,,,,SIMILAR,GS,,,,,,,,,,,,,,,,,,,,,,,return,95.184135, A duplicate sound animal mainly from Africa,0,15,15,24,1,,
,,,,,,,,,,,,,,,2021-03-24_07h00.31.497,CombinedMST_OA,2020.2.10,Win32,60,,,,,,,,,,,,,,,,,,,SoundMST/Helicopter_A.wav,,,,,,,,,,,,,,,,,,,,,,,,,,,,,,,,,,,,,,,,,,,,,,,,,,,,,,,,,,,,SAME,GS,,,,,,,,,,,,,,,,,,,,,,,return,92.56447, Dangerous tool,0,16,16,79,1,,
,,,,,,,,,,,,,,,2021-03-24_07h00.31.497,CombinedMST_OA,2020.2.10,Win32,60,,,,,,,,,,,,,,,,,,,SoundMST/Snore_E.wav,,,,,,,,,,,,,,,,,,,,,,,,,,,,,,,,,,,,,,,,,,,,,,,,,,,,,,,,,,,,SIMILAR,GS,,,,,,,,,,,,,,,,,,,,,,,return,109.15828, The bane of those sleeping people especially next to him,0,17,17,10,1,,
,,,,,,,,,,,,,,,2021-03-24_07h00.31.497,CombinedMST_OA,2020.2.10,Win32,60,,,,,,,,,,,,,,,,,,,SoundMST/Airhorn.wav,,,,,,,,,,,,,,,,,,,,,,,,,,,,,,,,,,,,,,,,,,,,,,,,,,,,,,,,,,,,SAME,GS,,,,,,,,,,,,,,,,,,,,,,,return,48.832565, Loud from those noises during the game,0,18,18,70,1,,
,,,,,,,,,,,,,,,2021-03-24_07h00.31.497,CombinedMST_OA,2020.2.10,Win32,60,,,,,,,,,,,,,,,,,,,SoundMST/Airplane_B.wav,,,,,,,,,,,,,,,,,,,,,,,,,,,,,,,,,,,,,,,,,,,,,,,,,,,,,,,,,,,,SAME,GS,,,,,,,,,,,,,,,,,,,,,,,return,89.36493, Characteristic sound while driving the machine,0,19,19,62,1,,
,,,,,,,,,,,,,,,2021-03-24_07h00.31.497,CombinedMST_OA,2020.2.10,Win32,60,,,,,,,,,,,,,,,,,,,SoundMST/Howl.wav,,,,,,,,,,,,,,,,,,,,,,,,,,,,,,,,,,,,,,,,,,,,,,,,,,,,,,,,,,,,SAME,GS,,,,,,,,,,,,,,,,,,,,,,,return,126.63306,animal sound like in typical horror movies,0,20,20,80,1,,
,,,,,,,,,,,,,,,2021-03-24_07h00.31.497,CombinedMST_OA,2020.2.10,Win32,60,,,,,,,,,,,,,,,,,,,SoundMST/Laugh_A.wav,,,,,,,,,,,,,,,,,,,,,,,,,,,,,,,,,,,,,,,,,,,,,,,,,,,,,,,,,,,,SIMILAR,GS,,,,,,,,,,,,,,,,,,,,,,,return,31.57827, The sound of happy company,0,21,21,33,1,,
,,,,,,,,,,,,,,,2021-03-24_07h00.31.497,CombinedMST_OA,2020.2.10,Win32,60,,,,,,,,,,,,,,,,,,,SoundMST/Pour_B.wav,,,,,,,,,,,,,,,,,,,,,,,,,,,,,,,,,,,,,,,,,,,,,,,,,,,,,,,,,,,,SIMILAR,GS,,,,,,,,,,,,,,,,,,,,,,,return,53.9316, Characteristic when pouring into a vessel,0,22,22,25,1,,
,,,,,,,,,,,,,,,2021-03-24_07h00.31.497,CombinedMST_OA,2020.2.10,Win32,60,,,,,,,,,,,,,,,,,,,SoundMST/Sneeze_B.wav,,,,,,,,,,,,,,,,,,,,,,,,,,,,,,,,,,,,,,,,,,,,,,,,,,,,,,,,,,,,SAME,GS,,,,,,,,,,,,,,,,,,,,,,,return,80.43663, Bless you after that,0,23,23,64,1,,
,,,,,,,,,,,,,,,2021-03-24_07h00.31.497,CombinedMST_OA,2020.2.10,Win32,60,,,,,,,,,,,,,,,,,,,SoundMST/Laugh_D.wav,,,,,,,,,,,,,,,,,,,,,,,,,,,,,,,,,,,,,,,,,,,,,,,,,,,,,,,,,,,,SIMILAR,GS,,,,,,,,,,,,,,,,,,,,,,,return,49.86963, Duplicate sound of joyful campany,0,24,24,9,1,,
,,,,,,,,,,,,,,,2021-03-24_07h00.31.497,CombinedMST_OA,2020.2.10,Win32,60,,,,,,,,,,,,,,,,,,,SoundMST/Whistle_B.wav,,,,,,,,,,,,,,,,,,,,,,,,,,,,,,,,,,,,,,,,,,,,,,,,,,,,,,,,,,,,SIMILAR,GS,,,,,,,,,,,,,,,,,,,,,,,return,107.898775,Referee's arms in the mouth during the match,0,25,25,35,1,,
,,,,,,,,,,,,,,,2021-03-24_07h00.31.497,CombinedMST_OA,2020.2.10,Win32,60,,,,,,,,,,,,,,,,,,,SoundMST/Growl_H.wav,,,,,,,,,,,,,,,,,,,,,,,,,,,,,,,,,,,,,,,,,,,,,,,,,,,,,,,,,,,,SIMILAR,GS,,,,,,,,,,,,,,,,,,,,,,,return,73.94042, Duplicate of the African king of beasts,0,26,26,19,1,,
,,,,,,,,,,,,,,,2021-03-24_07h00.31.497,CombinedMST_OA,2020.2.10,Win32,60,,,,,,,,,,,,,,,,,,,SoundMST/Trumpet_B.wav,,,,,,,,,,,,,,,,,,,,,,,,,,,,,,,,,,,,,,,,,,,,,,,,,,,,,,,,,,,,SAME,GS,,,,,,,,,,,,,,,,,,,,,,,return,63.061205," An instrument calling for battle, e.g.",0,27,27,63,1,,
,,,,,,,,,,,,,,,2021-03-24_07h00.31.497,CombinedMST_OA,2020.2.10,Win32,60,,,,,,,,,,,,,,,,,,,SoundMST/Pour_C.wav,,,,,,,,,,,,,,,,,,,,,,,,,,,,,,,,,,,,,,,,,,,,,,,,,,,,,,,,,,,,SIMILAR,GS,,,,,,,,,,,,,,,,,,,,,,,return,62.029695, Duplicate of the sound pouring into the vessel,0,28,28,1,1,,
,,,,,,,,,,,,,,,2021-03-24_07h00.31.497,CombinedMST_OA,2020.2.10,Win32,60,,,,,,,,,,,,,,,,,,,SoundMST/Camera.wav,,,,,,,,,,,,,,,,,,,,,,,,,,,,,,,,,,,,,,,,,,,,,,,,,,,,,,,,,,,,SAME,GS,,,,,,,,,,,,,,,,,,,,,,,return,20.8941, Snapshot,0,29,29,84,1,,
,,,,,,,,,,,,,,,2021-03-24_07h00.31.497,CombinedMST_OA,2020.2.10,Win32,60,,,,,,,,,,,,,,,,,,,SoundMST/Cough_F.wav,,,,,,,,,,,,,,,,,,,,,,,,,,,,,,,,,,,,,,,,,,,,,,,,,,,,,,,,,,,,SIMILAR,GS,,,,,,,,,,,,,,,,,,,,,,,return,25.432515, Cough,0,30,30,6,1,,
,,,,,,,,,,,,,,,2021-03-24_07h00.31.497,CombinedMST_OA,2020.2.10,Win32,60,,,,,,,,,,,,,,,,,,,SoundMST/Hammer_A.wav,,,,,,,,,,,,,,,,,,,,,,,,,,,,,,,,,,,,,,,,,,,,,,,,,,,,,,,,,,,,SAME,GS,,,,,,,,,,,,,,,,,,,,,,,return,38.9683, Hitting something,0,31,31,76,1,,
,,,,,,,,,,,,,,,2021-03-24_07h00.31.497,CombinedMST_OA,2020.2.10,Win32,60,,,,,,,,,,,,,,,,,,,SoundMST/Chime_A.wav,,,,,,,,,,,,,,,,,,,,,,,,,,,,,,,,,,,,,,,,,,,,,,,,,,,,,,,,,,,,SIMILAR,GS,,,,,,,,,,,,,,,,,,,,,,,return,41.731615, Churchy sound on the tower,0,32,32,2,1,,
,,,,,,,,,,,,,,,2021-03-24_07h00.31.497,CombinedMST_OA,2020.2.10,Win32,60,,,,,,,,,,,,,,,,,,,SoundMST/Typing.wav,,,,,,,,,,,,,,,,,,,,,,,,,,,,,,,,,,,,,,,,,,,,,,,,,,,,,,,,,,,,SAME,GS,,,,,,,,,,,,,,,,,,,,,,,return,51.576055," Tapping, tapping on the keyboard",0,33,33,49,1,,
,,,,,,,,,,,,,,,2021-03-24_07h00.31.497,CombinedMST_OA,2020.2.10,Win32,60,,,,,,,,,,,,,,,,,,,SoundMST/Slurp.wav,,,,,,,,,,,,,,,,,,,,,,,,,,,,,,,,,,,,,,,,,,,,,,,,,,,,,,,,,,,,SAME,GS,,,,,,,,,,,,,,,,,,,,,,,return,28.51144," Hum, gurgling",0,34,34,66,1,,
,,,,,,,,,,,,,,,2021-03-24_07h00.31.497,CombinedMST_OA,2020.2.10,Win32,60,,,,,,,,,,,,,,,,,,,SoundMST/Wind_B.wav,,,,,,,,,,,,,,,,,,,,,,,,,,,,,,,,,,,,,,,,,,,,,,,,,,,,,,,,,,,,SAME,GS,,,,,,,,,,,,,,,,,,,,,,,return,95.02888," Especially in winter, it makes itself felt by the wind",0,35,35,55,1,,
,,,,,,,,,,,,,,,2021-03-24_07h00.31.497,CombinedMST_OA,2020.2.10,Win32,60,,,,,,,,,,,,,,,,,,,SoundMST/Siren_A.wav,,,,,,,,,,,,,,,,,,,,,,,,,,,,,,,,,,,,,,,,,,,,,,,,,,,,,,,,,,,,SIMILAR,GS,,,,,,,,,,,,,,,,,,,,,,,return,25.829515, Going to help,0,36,36,14,1,,
,,,,,,,,,,,,,,,2021-03-24_07h00.31.497,CombinedMST_OA,2020.2.10,Win32,60,,,,,,,,,,,,,,,,,,,SoundMST/Cow.wav,,,,,,,,,,,,,,,,,,,,,,,,,,,,,,,,,,,,,,,,,,,,,,,,,,,,,,,,,,,,SAME,GS,,,,,,,,,,,,,,,,,,,,,,,return,61.83385, Giving milk to the animal,0,37,37,71,1,,
,,,,,,,,,,,,,,,2021-03-24_07h00.31.497,CombinedMST_OA,2020.2.10,Win32,60,,,,,,,,,,,,,,,,,,,SoundMST/Crow_A.wav,,,,,,,,,,,,,,,,,,,,,,,,,,,,,,,,,,,,,,,,,,,,,,,,,,,,,,,,,,,,SIMILAR,GS,,,,,,,,,,,,,,,,,,,,,,,return,51.744795, Black birds croaking,0,38,38,15,1,,
,,,,,,,,,,,,,,,2021-03-24_07h00.31.497,CombinedMST_OA,2020.2.10,Win32,60,,,,,,,,,,,,,,,,,,,SoundMST/Cough_D.wav,,,,,,,,,,,,,,,,,,,,,,,,,,,,,,,,,,,,,,,,,,,,,,,,,,,,,,,,,,,,SIMILAR,GS,,,,,,,,,,,,,,,,,,,,,,,return,59.402775, Choking and suffocating often,0,39,39,30,1,,
,,,,,,,,,,,,,,,2021-03-24_07h00.31.497,CombinedMST_OA,2020.2.10,Win32,60,,,,,,,,,,,,,,,,,,,SoundMST/Buzz.wav,,,,,,,,,,,,,,,,,,,,,,,,,,,,,,,,,,,,,,,,,,,,,,,,,,,,,,,,,,,,SAME,GS,,,,,,,,,,,,,,,,,,,,,,,return,33.005945, Device vibrator,0,40,40,52,1,,
,,,,,,,,,,,,,,,2021-03-24_07h00.31.497,CombinedMST_OA,2020.2.10,Win32,60,,,,,,,,,,,,,,,,,,,SoundMST/Droplet_B.wav,,,,,,,,,,,,,,,,,,,,,,,,,,,,,,,,,,,,,,,,,,,,,,,,,,,,,,,,,,,,SAME,GS,,,,,,,,,,,,,,,,,,,,,,,return,21.312385, dripping,0,41,41,85,1,,
,,,,,,,,,,,,,,,2021-03-24_07h00.31.497,CombinedMST_OA,2020.2.10,Win32,60,,,,,,,,,,,,,,,,,,,SoundMST/Faucet_C.wav,,,,,,,,,,,,,,,,,,,,,,,,,,,,,,,,,,,,,,,,,,,,,,,,,,,,,,,,,,,,SIMILAR,GS,,,,,,,,,,,,,,,,,,,,,,,return,42.907195, The sound of pouring it into a vessel,0,42,42,5,1,,
,,,,,,,,,,,,,,,2021-03-24_07h00.31.497,CombinedMST_OA,2020.2.10,Win32,60,,,,,,,,,,,,,,,,,,,SoundMST/IceDrop.wav,,,,,,,,,,,,,,,,,,,,,,,,,,,,,,,,,,,,,,,,,,,,,,,,,,,,,,,,,,,,SAME,GS,,,,,,,,,,,,,,,,,,,,,,,return,87.92922," Throwing something into the  vessel, a dull sound",0,43,43,57,1,,
,,,,,,,,,,,,,,,2021-03-24_07h00.31.497,CombinedMST_OA,2020.2.10,Win32,60,,,,,,,,,,,,,,,,,,,SoundMST/Piano_D.wav,,,,,,,,,,,,,,,,,,,,,,,,,,,,,,,,,,,,,,,,,,,,,,,,,,,,,,,,,,,,SAME,GS,,,,,,,,,,,,,,,,,,,,,,,return,46.00527, keyboard instrument,0,44,44,77,1,,
,,,,,,,,,,,,,,,2021-03-24_07h00.31.497,CombinedMST_OA,2020.2.10,Win32,60,,,,,,,,,,,,,,,,,,,SoundMST/Baby_E.wav,,,,,,,,,,,,,,,,,,,,,,,,,,,,,,,,,,,,,,,,,,,,,,,,,,,,,,,,,,,,SIMILAR,GS,,,,,,,,,,,,,,,,,,,,,,,return,38.503345, bizarre human sound,0,45,45,4,1,,
,,,,,,,,,,,,,,,2021-03-24_07h00.31.497,CombinedMST_OA,2020.2.10,Win32,60,,,,,,,,,,,,,,,,,,,SoundMST/Donkey.wav,,,,,,,,,,,,,,,,,,,,,,,,,,,,,,,,,,,,,,,,,,,,,,,,,,,,,,,,,,,,SAME,GS,,,,,,,,,,,,,,,,,,,,,,,return,30.91273, Stubborn animal,0,46,46,87,1,,
,,,,,,,,,,,,,,,2021-03-24_07h00.31.497,CombinedMST_OA,2020.2.10,Win32,60,,,,,,,,,,,,,,,,,,,SoundMST/Crow_B.wav,,,,,,,,,,,,,,,,,,,,,,,,,,,,,,,,,,,,,,,,,,,,,,,,,,,,,,,,,,,,SIMILAR,GS,,,,,,,,,,,,,,,,,,,,,,,return,72.00746, A duplicate black croaking bird,0,47,47,39,1,,
,,,,,,,,,,,,,,,2021-03-24_07h00.31.497,CombinedMST_OA,2020.2.10,Win32,60,,,,,,,,,,,,,,,,,,,SoundMST/Puff_A.wav,,,,,,,,,,,,,,,,,,,,,,,,,,,,,,,,,,,,,,,,,,,,,,,,,,,,,,,,,,,,SAME,GS,,,,,,,,,,,,,,,,,,,,,,,return,39.96652, Whistle toy,0,48,48,58,1,,
,,,,,,,,,,,,,,,2021-03-24_07h00.31.497,CombinedMST_OA,2020.2.10,Win32,60,,,,,,,,,,,,,,,,,,,SoundMST/Phone_E.wav,,,,,,,,,,,,,,,,,,,,,,,,,,,,,,,,,,,,,,,,,,,,,,,,,,,,,,,,,,,,SIMILAR,GS,,,,,,,,,,,,,,,,,,,,,,,return,65.85296, Distinctive sound of the calling device,0,49,49,13,1,,
,,,,,,,,,,,,,,,2021-03-24_07h00.31.497,CombinedMST_OA,2020.2.10,Win32,60,,,,,,,,,,,,,,,,,,,SoundMST/Bullfrog.wav,,,,,,,,,,,,,,,,,,,,,,,,,,,,,,,,,,,,,,,,,,,,,,,,,,,,,,,,,,,,SAME,GS,,,,,,,,,,,,,,,,,,,,,,,return,18.75016," Kum, Kum",0,50,50,73,1,,
,,,,,,,,,,,,,,,2021-03-24_07h00.31.497,CombinedMST_OA,2020.2.10,Win32,60,,,,,,,,,,,,,,,,,,,SoundMST/Phone_D.wav,,,,,,,,,,,,,,,,,,,,,,,,,,,,,,,,,,,,,,,,,,,,,,,,,,,,,,,,,,,,SIMILAR,GS,,,,,,,,,,,,,,,,,,,,,,,return,37.513825, Calls to pick up and talk,0,51,51,37,1,,
,,,,,,,,,,,,,,,2021-03-24_07h00.31.497,CombinedMST_OA,2020.2.10,Win32,60,,,,,,,,,,,,,,,,,,,SoundMST/Coin_E.wav,,,,,,,,,,,,,,,,,,,,,,,,,,,,,,,,,,,,,,,,,,,,,,,,,,,,,,,,,,,,SIMILAR,GS,,,,,,,,,,,,,,,,,,,,,,,return,32.00731, Duplicate shuffle,0,52,52,18,1,,
,,,,,,,,,,,,,,,2021-03-24_07h00.31.497,CombinedMST_OA,2020.2.10,Win32,60,,,,,,,,,,,,,,,,,,,SoundMST/Duck_D.wav,,,,,,,,,,,,,,,,,,,,,,,,,,,,,,,,,,,,,,,,,,,,,,,,,,,,,,,,,,,,SIMILAR,GS,,,,,,,,,,,,,,,,,,,,,,,return,40.46245, Gagging bird,0,53,53,8,1,,
,,,,,,,,,,,,,,,2021-03-24_07h00.31.497,CombinedMST_OA,2020.2.10,Win32,60,,,,,,,,,,,,,,,,,,,SoundMST/Snore_D.wav,,,,,,,,,,,,,,,,,,,,,,,,,,,,,,,,,,,,,,,,,,,,,,,,,,,,,,,,,,,,SIMILAR,GS,,,,,,,,,,,,,,,,,,,,,,,return,61.46989, Duplicate disturbing sound during sleep,0,54,54,34,1,,
,,,,,,,,,,,,,,,2021-03-24_07h00.31.497,CombinedMST_OA,2020.2.10,Win32,60,,,,,,,,,,,,,,,,,,,SoundMST/Chomp_C.wav,,,,,,,,,,,,,,,,,,,,,,,,,,,,,,,,,,,,,,,,,,,,,,,,,,,,,,,,,,,,SIMILAR,GS,,,,,,,,,,,,,,,,,,,,,,,return,30.938535, Crunch duplicate,0,55,55,12,1,,
,,,,,,,,,,,,,,,2021-03-24_07h00.31.497,CombinedMST_OA,2020.2.10,Win32,60,,,,,,,,,,,,,,,,,,,SoundMST/Thunder_A.wav,,,,,,,,,,,,,,,,,,,,,,,,,,,,,,,,,,,,,,,,,,,,,,,,,,,,,,,,,,,,SAME,GS,,,,,,,,,,,,,,,,,,,,,,,return,44.034545, Possibly wave blow,0,56,56,48,1,,
,,,,,,,,,,,,,,,2021-03-24_07h00.31.497,CombinedMST_OA,2020.2.10,Win32,60,,,,,,,,,,,,,,,,,,,SoundMST/Duck_C.wav,,,,,,,,,,,,,,,,,,,,,,,,,,,,,,,,,,,,,,,,,,,,,,,,,,,,,,,,,,,,SIMILAR,GS,,,,,,,,,,,,,,,,,,,,,,,return,55.80149, A duplicate of the honking bird,0,57,57,32,1,,
,,,,,,,,,,,,,,,2021-03-24_07h00.31.497,CombinedMST_OA,2020.2.10,Win32,60,,,,,,,,,,,,,,,,,,,SoundMST/Bubbles_A.wav,,,,,,,,,,,,,,,,,,,,,,,,,,,,,,,,,,,,,,,,,,,,,,,,,,,,,,,,,,,,SIMILAR,GS,,,,,,,,,,,,,,,,,,,,,,,return,45.637365, Duplicate gurgling,0,58,58,45,1,,
,,,,,,,,,,,,,,,2021-03-24_07h00.31.497,CombinedMST_OA,2020.2.10,Win32,60,,,,,,,,,,,,,,,,,,,SoundMST/Writing_A.wav,,,,,,,,,,,,,,,,,,,,,,,,,,,,,,,,,,,,,,,,,,,,,,,,,,,,,,,,,,,,SIMILAR,GS,,,,,,,,,,,,,,,,,,,,,,,return,22.717065, Scrubbing,0,59,59,27,1,,
,,,,,,,,,,,,,,,2021-03-24_07h00.31.497,CombinedMST_OA,2020.2.10,Win32,60,,,,,,,,,,,,,,,,,,,SoundMST/Heartbeat.wav,,,,,,,,,,,,,,,,,,,,,,,,,,,,,,,,,,,,,,,,,,,,,,,,,,,,,,,,,,,,SAME,GS,,,,,,,,,,,,,,,,,,,,,,,return,27.06944, Beats everyone,0,60,60,56,1,,
,,,,,,,,,,,,,,,2021-03-24_07h00.31.497,CombinedMST_OA,2020.2.10,Win32,60,,,,,,,,,,,,,,,,,,,SoundMST/Horse.wav,,,,,,,,,,,,,,,,,,,,,,,,,,,,,,,,,,,,,,,,,,,,,,,,,,,,,,,,,,,,SAME,GS,,,,,,,,,,,,,,,,,,,,,,,return,61.19734, Horse laugh,0,61,61,82,1,,
,,,,,,,,,,,,,,,2021-03-24_07h00.31.497,CombinedMST_OA,2020.2.10,Win32,60,,,,,,,,,,,,,,,,,,,SoundMST/Toilet_B.wav,,,,,,,,,,,,,,,,,,,,,,,,,,,,,,,,,,,,,,,,,,,,,,,,,,,,,,,,,,,,SAME,GS,,,,,,,,,,,,,,,,,,,,,,,return,19.313485, Rinsing,0,62,62,51,1,,
,,,,,,,,,,,,,,,2021-03-24_07h00.31.497,CombinedMST_OA,2020.2.10,Win32,60,,,,,,,,,,,,,,,,,,,SoundMST/Siren_E.wav,,,,,,,,,,,,,,,,,,,,,,,,,,,,,,,,,,,,,,,,,,,,,,,,,,,,,,,,,,,,SIMILAR,GS,,,,,,,,,,,,,,,,,,,,,,,return,60.21015, Duplicate sound of the vehicle running to help,0,63,63,38,1,,
,,,,,,,,,,,,,,,2021-03-24_07h00.31.497,CombinedMST_OA,2020.2.10,Win32,60,,,,,,,,,,,,,,,,,,,SoundMST/Whistle_C.wav,,,,,,,,,,,,,,,,,,,,,,,,,,,,,,,,,,,,,,,,,,,,,,,,,,,,,,,,,,,,SIMILAR,GS,,,,,,,,,,,,,,,,,,,,,,,return,68.74285, A duplicate of the weapons of the judge in his mouth,0,64,64,11,1,,
,,,,,,,,,,,,,,,2021-03-24_07h00.31.497,CombinedMST_OA,2020.2.10,Win32,60,,,,,,,,,,,,,,,,,,,SoundMST/Baby_F.wav,,,,,,,,,,,,,,,,,,,,,,,,,,,,,,,,,,,,,,,,,,,,,,,,,,,,,,,,,,,,SIMILAR,GS,,,,,,,,,,,,,,,,,,,,,,,return,55.32833, Duplicate bizarre sound,0,65,65,28,1,,
,,,,,,,,,,,,,,,2021-03-24_07h00.31.497,CombinedMST_OA,2020.2.10,Win32,60,,,,,,,,,,,,,,,,,,,SoundMST/Footsteps_F.wav,,,,,,,,,,,,,,,,,,,,,,,,,,,,,,,,,,,,,,,,,,,,,,,,,,,,,,,,,,,,SIMILAR,GS,,,,,,,,,,,,,,,,,,,,,,,return,60.119615," Duplicate sound during movement, e.g. entering",0,66,66,16,1,,
,,,,,,,,,,,,,,,2021-03-24_07h00.31.497,CombinedMST_OA,2020.2.10,Win32,60,,,,,,,,,,,,,,,,,,,SoundMST/Cuckoo_A.wav,,,,,,,,,,,,,,,,,,,,,,,,,,,,,,,,,,,,,,,,,,,,,,,,,,,,,,,,,,,,SAME,GS,,,,,,,,,,,,,,,,,,,,,,,return,30.424255, Cuckoo device,0,67,67,75,1,,
,,,,,,,,,,,,,,,2021-03-24_07h00.31.497,CombinedMST_OA,2020.2.10,Win32,60,,,,,,,,,,,,,,,,,,,SoundMST/Writing_C.wav,,,,,,,,,,,,,,,,,,,,,,,,,,,,,,,,,,,,,,,,,,,,,,,,,,,,,,,,,,,,SIMILAR,GS,,,,,,,,,,,,,,,,,,,,,,,return,38.056885," Shuffling, cleaning",0,68,68,3,1,,
,,,,,,,,,,,,,,,2021-03-24_07h00.31.497,CombinedMST_OA,2020.2.10,Win32,60,,,,,,,,,,,,,,,,,,,SoundMST/Chicken_A.wav,,,,,,,,,,,,,,,,,,,,,,,,,,,,,,,,,,,,,,,,,,,,,,,,,,,,,,,,,,,,SAME,GS,,,,,,,,,,,,,,,,,,,,,,,return,51.531615, Lays eggs and a greyhound,0,69,69,60,1,,
,,,,,,,,,,,,,,,2021-03-24_07h00.31.497,CombinedMST_OA,2020.2.10,Win32,60,,,,,,,,,,,,,,,,,,,SoundMST/Cat_A.wav,,,,,,,,,,,,,,,,,,,,,,,,,,,,,,,,,,,,,,,,,,,,,,,,,,,,,,,,,,,,SAME,GS,,,,,,,,,,,,,,,,,,,,,,,return,33.83037, mossy animal,0,70,70,65,1,,
,,,,,,,,,,,,,,,2021-03-24_07h00.31.497,CombinedMST_OA,2020.2.10,Win32,60,,,,,,,,,,,,,,,,,,,SoundMST/Goat_B.wav,,,,,,,,,,,,,,,,,,,,,,,,,,,,,,,,,,,,,,,,,,,,,,,,,,,,,,,,,,,,SIMILAR,GS,,,,,,,,,,,,,,,,,,,,,,,return,20.917995, sheep,0,71,71,44,1,,
,,,,,,,,,,,,,,,2021-03-24_07h00.31.497,CombinedMST_OA,2020.2.10,Win32,60,,,,,,,,,,,,,,,,,,,SoundMST/Fireworks.wav,,,,,,,,,,,,,,,,,,,,,,,,,,,,,,,,,,,,,,,,,,,,,,,,,,,,,,,,,,,,SAME,GS,,,,,,,,,,,,,,,,,,,,,,,return,40.622245, New Year's shows in the sky,0,72,72,78,1,,
,,,,,,,,,,,,,,,2021-03-24_07h00.31.497,CombinedMST_OA,2020.2.10,Win32,60,,,,,,,,,,,,,,,,,,,SoundMST/Guitar_B.wav,,,,,,,,,,,,,,,,,,,,,,,,,,,,,,,,,,,,,,,,,,,,,,,,,,,,,,,,,,,,SAME,GS,,,,,,,,,,,,,,,,,,,,,,,return,32.398835, Stringed instrument,0,73,73,59,1,,
,,,,,,,,,,,,,,,2021-03-24_07h00.31.497,CombinedMST_OA,2020.2.10,Win32,60,,,,,,,,,,,,,,,,,,,SoundMST/HairDryer_A.wav,,,,,,,,,,,,,,,,,,,,,,,,,,,,,,,,,,,,,,,,,,,,,,,,,,,,,,,,,,,,SAME,GS,,,,,,,,,,,,,,,,,,,,,,,return,25.66372, Vacuuming,0,74,74,74,1,,
,,,,,,,,,,,,,,,2021-03-24_07h00.31.497,CombinedMST_OA,2020.2.10,Win32,60,,,,,,,,,,,,,,,,,,,SoundMST/Cello.wav,,,,,,,,,,,,,,,,,,,,,,,,,,,,,,,,,,,,,,,,,,,,,,,,,,,,,,,,,,,,SAME,GS,,,,,,,,,,,,,,,,,,,,,,,return,17.790205, string,0,75,75,61,1,,
,,,,,,,,,,,,,,,2021-03-24_07h00.31.497,CombinedMST_OA,2020.2.10,Win32,60,,,,,,,,,,,,,,,,,,,SoundMST/Bowlingpins.wav,,,,,,,,,,,,,,,,,,,,,,,,,,,,,,,,,,,,,,,,,,,,,,,,,,,,,,,,,,,,SAME,GS,,,,,,,,,,,,,,,,,,,,,,,return,30.37991, chaos of items,0,76,76,72,1,,
,,,,,,,,,,,,,,,2021-03-24_07h00.31.497,CombinedMST_OA,2020.2.10,Win32,60,,,,,,,,,,,,,,,,,,,SoundMST/PaperRip.wav,,,,,,,,,,,,,,,,,,,,,,,,,,,,,,,,,,,,,,,,,,,,,,,,,,,,,,,,,,,,SAME,GS,,,,,,,,,,,,,,,,,,,,,,,return,24.20668, Duplicate shuffle,0,77,77,81,1,,
,,,,,,,,,,,,,,,2021-03-24_07h00.31.497,CombinedMST_OA,2020.2.10,Win32,60,,,,,,,,,,,,,,,,,,,SoundMST/Chime_B.wav,,,,,,,,,,,,,,,,,,,,,,,,,,,,,,,,,,,,,,,,,,,,,,,,,,,,,,,,,,,,SIMILAR,GS,,,,,,,,,,,,,,,,,,,,,,,return,52.28135, A duplicate of what sounds on the tower ,0,78,78,26,1,,
,,,,,,,,,,,,,,,2021-03-24_07h00.31.497,CombinedMST_OA,2020.2.10,Win32,60,,,,,,,,,,,,,,,,,,,SoundMST/Dog_H.wav,,,,,,,,,,,,,,,,,,,,,,,,,,,,,,,,,,,,,,,,,,,,,,,,,,,,,,,,,,,,SIMILAR,GS,,,,,,,,,,,,,,,,,,,,,,,return,46.67055, Our watchdog in action,0,79,79,41,1,,
,,,,,,,,,,,,,,,2021-03-24_07h00.31.497,CombinedMST_OA,2020.2.10,Win32,60,,,,,,,,,,,,,,,,,,,SoundMST/Goat_C.wav,,,,,,,,,,,,,,,,,,,,,,,,,,,,,,,,,,,,,,,,,,,,,,,,,,,,,,,,,,,,SIMILAR,GS,,,,,,,,,,,,,,,,,,,,,,,return,53.645035, Duplicate sheep bleating sound,0,80,80,20,1,,
,,,,,,,,,,,,,,,2021-03-24_07h00.31.497,CombinedMST_OA,2020.2.10,Win32,60,,,,,,,,,,,,,,,,,,,SoundMST/Clap_C.wav,,,,,,,,,,,,,,,,,,,,,,,,,,,,,,,,,,,,,,,,,,,,,,,,,,,,,,,,,,,,SIMILAR,GS,,,,,,,,,,,,,,,,,,,,,,,return,23.894975, Duplicate applause,0,81,81,23,1,,
,,,,,,,,,,,,,,,2021-03-24_07h00.31.497,CombinedMST_OA,2020.2.10,Win32,60,,,,,,,,,,,,,,,,,,,SoundMST/ManWhistle.wav,,,,,,,,,,,,,,,,,,,,,,,,,,,,,,,,,,,,,,,,,,,,,,,,,,,,,,,,,,,,SAME,GS,,,,,,,,,,,,,,,,,,,,,,,return,45.60688, The sound of a happy mouth,0,82,82,67,1,,
,,,,,,,,,,,,,,,2021-03-24_07h00.31.497,CombinedMST_OA,2020.2.10,Win32,60,,,,,,,,,,,,,,,,,,,SoundMST/Printer.wav,,,,,,,,,,,,,,,,,,,,,,,,,,,,,,,,,,,,,,,,,,,,,,,,,,,,,,,,,,,,SAME,GS,,,,,,,,,,,,,,,,,,,,,,,return,29.586695, some machine,0,83,83,83,1,,
,,,,,,,,,,,,,,,2021-03-24_07h00.31.497,CombinedMST_OA,2020.2.10,Win32,60,,,,,,,,,,,,,,,,,,,SoundMST/CarStart_E.wav,,,,,,,,,,,,,,,,,,,,,,,,,,,,,,,,,,,,,,,,,,,,,,,,,,,,,,,,,,,,SIMILAR,GS,,,,,,,,,,,,,,,,,,,,,,,return,49.96266, The machine is probably starting a duplicate,0,84,84,46,1,,
,,,,,,,,,,,,,,,2021-03-24_07h00.31.497,CombinedMST_OA,2020.2.10,Win32,60,,,,,,,,,,,,,,,,,,,SoundMST/Bird_A.wav,,,,,,,,,,,,,,,,,,,,,,,,,,,,,,,,,,,,,,,,,,,,,,,,,,,,,,,,,,,,SIMILAR,GS,,,,,,,,,,,,,,,,,,,,,,,return,73.89645," A duplicate of joyful singing, e.g. in a bird forest",0,85,85,7,1,,
,,,,,,,,,,,,,,,2021-03-24_07h00.31.497,CombinedMST_OA,2020.2.10,Win32,60,,,,,,,,,,,,,,,,,,,SoundMST/Faucet_A.wav,,,,,,,,,,,,,,,,,,,,,,,,,,,,,,,,,,,,,,,,,,,,,,,,,,,,,,,,,,,,SIMILAR,GS,,,,,,,,,,,,,,,,,,,,,,,return,24.571655, Duplicate pouring,0,86,86,29,1,,
,,,,,,,,,,,,,,,2021-03-24_07h00.31.497,CombinedMST_OA,2020.2.10,Win32,60,,,,,,,,,,,,,,,,,,,SoundMST/Dog_F.wav,,,,,,,,,,,,,,,,,,,,,,,,,,,,,,,,,,,,,,,,,,,,,,,,,,,,,,,,,,,,SIMILAR,GS,,,,,,,,,,,,,,,,,,,,,,,return,68.14129, Our low-pitched watchdog,0,87,87,17,1,,
,,,,,,,,,,,,,,,2021-03-24_07h00.31.497,CombinedMST_OA,2020.2.10,Win32,60,,,,,,,,,,,,,,,,,,,,,,,,,,,,,,,,,,,,,,,,,,,,,,,,,,,,,,,,,,,,,,,,,,,,,,,,,,,,,,,,,,,,,,,,,,,,,,,,,,,,,,,,,,,,,,,space,15.06588
