VolumeContinueKey.keys,VolumeContinueKey.rt,HeadphoneContinueKey.keys,HeadphoneContinueKey.rt,CheckResp.keys,CheckResp.corr,CheckResp.rt,trials_3.thisRepN,trials_3.thisTrialN,trials_3.thisN,trials_3.thisIndex,trials_3.ran,File,Correct,participant,date,expName,psychopyVersion,OS,frameRate,Welcome0ContKey.keys,Welcome0ContKey.rt,key_resp.keys,key_resp.rt,WelcomeSound2ContKey.keys,WelcomeSound2ContKey.rt,WelcomeContinueKey2.keys,WelcomeContinueKey2.rt,PracticeSoundKey.keys,PracticeSoundKey.corr,PracticeSoundKey.rt,SoundPracticeLoop.thisRepN,SoundPracticeLoop.thisTrialN,SoundPracticeLoop.thisN,SoundPracticeLoop.thisIndex,SoundPracticeLoop.ran,SoundFile,SoundMST_File,GS_File,SoundCorrect,Correct2,SoundType,,Trial,MSTSoundStrtKey.keys,MSTSoundStrtKey.rt,MSTSoundKey.keys,MSTSoundKey.corr,MSTSoundKey.rt,MSTSoundLoop.thisRepN,MSTSoundLoop.thisTrialN,MSTSoundLoop.thisN,MSTSoundLoop.thisIndex,MSTSoundLoop.ran,AttnCheck2Keys.keys,AttnCheck2Keys.rt,AttnCheck2Resp.text,SoundTask.thisRepN,SoundTask.thisTrialN,SoundTask.thisN,SoundTask.thisIndex,SoundTask.ran,Counterbalance.thisRepN,Counterbalance.thisTrialN,Counterbalance.thisN,Counterbalance.thisIndex,Counterbalance.ran,WordOrder,SoundOrder,ContinueResp.keys,ContinueResp.rt,Wel2ContinueKey.keys,Wel2ContinueKey.rt,Practice_resp.keys,Practice_resp.corr,Practice_resp.rt,PracticeTrials.thisRepN,PracticeTrials.thisTrialN,PracticeTrials.thisN,PracticeTrials.thisIndex,PracticeTrials.ran,Type,StartTast.keys,StartTast.rt,MST_resp.keys,MST_resp.corr,MST_resp.rt,trials.thisRepN,trials.thisTrialN,trials.thisN,trials.thisIndex,trials.ran,WordCorrect,Correct_type,WordType,Condition,Attn1ContKey.keys,Attn1ContKey.rt,AttnCheckResp.text,SyllblCheckContKey.keys,SyllblCheckContKey.rt,SyllblCheckResp.keys,SyllblCheckResp.corr,SyllblCheckResp.rt,trials_2.thisRepN,trials_2.thisTrialN,trials_2.thisN,trials_2.thisIndex,trials_2.ran,Target,Word1,Word2,Word3,WordTask.thisRepN,WordTask.thisTrialN,WordTask.thisN,WordTask.thisIndex,WordTask.ran,key_resp_4.keys,key_resp_4.rt,GuessSoundIntro2Cont.keys,GuessSoundIntro2Cont.rt,GSSubmit.keys,GSSubmit.rt,GSResponse.text,GuessSoundLoop.thisRepN,GuessSoundLoop.thisTrialN,GuessSoundLoop.thisN,GuessSoundLoop.thisIndex,GuessSoundLoop.ran,ExitKey.keys,ExitKey.rt
space,4.999525,space,16.68434,1,1,2.62817,0,0,0,0,1,Headphone/t1_1.wav,1,5c537b8b87d9ef0001f195d4,2021-03-24_18h54.06.927,CombinedMST_OA,2020.2.10,Win32,60,,,,,,,,,,,,,,,,,,,,,,,,,,,,,,,,,,,,,,,,,,,,,,,,,,,,,,,,,,,,,,,,,,,,,,,,,,,,,,,,,,,,,,,,,,,,,,,,,,,,,,,,,,,,,,,,
,,,,2,1,1.14659,0,1,1,2,1,Headphone/t2_1.wav,2,5c537b8b87d9ef0001f195d4,2021-03-24_18h54.06.927,CombinedMST_OA,2020.2.10,Win32,60,,,,,,,,,,,,,,,,,,,,,,,,,,,,,,,,,,,,,,,,,,,,,,,,,,,,,,,,,,,,,,,,,,,,,,,,,,,,,,,,,,,,,,,,,,,,,,,,,,,,,,,,,,,,,,,,
,,,,2,1,0.617025,0,2,2,3,1,Headphone/t2_2.wav,2,5c537b8b87d9ef0001f195d4,2021-03-24_18h54.06.927,CombinedMST_OA,2020.2.10,Win32,60,,,,,,,,,,,,,,,,,,,,,,,,,,,,,,,,,,,,,,,,,,,,,,,,,,,,,,,,,,,,,,,,,,,,,,,,,,,,,,,,,,,,,,,,,,,,,,,,,,,,,,,,,,,,,,,,
,,,,3,1,0.65013,0,3,3,5,1,Headphone/t3_2.wav,3,5c537b8b87d9ef0001f195d4,2021-03-24_18h54.06.927,CombinedMST_OA,2020.2.10,Win32,60,,,,,,,,,,,,,,,,,,,,,,,,,,,,,,,,,,,,,,,,,,,,,,,,,,,,,,,,,,,,,,,,,,,,,,,,,,,,,,,,,,,,,,,,,,,,,,,,,,,,,,,,,,,,,,,,
,,,,3,1,0.583905,0,4,4,4,1,Headphone/t3_1.wav,3,5c537b8b87d9ef0001f195d4,2021-03-24_18h54.06.927,CombinedMST_OA,2020.2.10,Win32,60,,,,,,,,,,,,,,,,,,,,,,,,,,,,,,,,,,,,,,,,,,,,,,,,,,,,,,,,,,,,,,,,,,,,,,,,,,,,,,,,,,,,,,,,,,,,,,,,,,,,,,,,,,,,,,,,
,,,,1,1,0.5004,0,5,5,1,1,Headphone/t1_2.wav,1,5c537b8b87d9ef0001f195d4,2021-03-24_18h54.06.927,CombinedMST_OA,2020.2.10,Win32,60,,,,,,,,,,,,,,,,,,,,,,,,,,,,,,,,,,,,,,,,,,,,,,,,,,,,,,,,,,,,,,,,,,,,,,,,,,,,,,,,,,,,,,,,,,,,,,,,,,,,,,,,,,,,,,,,
,,,,,,,,,,,,,,5c537b8b87d9ef0001f195d4,2021-03-24_18h54.06.927,CombinedMST_OA,2020.2.10,Win32,60,space,5.58527,space,16.8264,space,8.53543,space,3.761025,2,1,3.48494,0,0,0,0,1,,Practice/Seagull_A.wav,,2,3,NEW,,Practice,,,,,,,,,,,,,,,,,,,,,,,,,,,,,,,,,,,,,,,,,,,,,,,,,,,,,,,,,,,,,,,,,,,,,,,,,,,,,,,,,,,,,,,,
,,,,,,,,,,,,,,5c537b8b87d9ef0001f195d4,2021-03-24_18h54.06.927,CombinedMST_OA,2020.2.10,Win32,60,,,,,,,,,2,1,1.23594,0,1,1,1,1,,Practice/Skid_B.wav,,2,3,NEW,,Practice,,,,,,,,,,,,,,,,,,,,,,,,,,,,,,,,,,,,,,,,,,,,,,,,,,,,,,,,,,,,,,,,,,,,,,,,,,,,,,,,,,,,,,,,
,,,,,,,,,,,,,,5c537b8b87d9ef0001f195d4,2021-03-24_18h54.06.927,CombinedMST_OA,2020.2.10,Win32,60,,,,,,,,,1,1,1.27041,0,2,2,2,1,,Practice/Seagull_A.wav,,1,1,OLD,,Practice,,,,,,,,,,,,,,,,,,,,,,,,,,,,,,,,,,,,,,,,,,,,,,,,,,,,,,,,,,,,,,,,,,,,,,,,,,,,,,,,,,,,,,,,
,,,,,,,,,,,,,,5c537b8b87d9ef0001f195d4,2021-03-24_18h54.06.927,CombinedMST_OA,2020.2.10,Win32,60,,,,,,,,,2,1,1.110845,0,3,3,3,1,,Practice/Gargle_A.wav,,2,3,NEW,,Practice,,,,,,,,,,,,,,,,,,,,,,,,,,,,,,,,,,,,,,,,,,,,,,,,,,,,,,,,,,,,,,,,,,,,,,,,,,,,,,,,,,,,,,,,
,,,,,,,,,,,,,,5c537b8b87d9ef0001f195d4,2021-03-24_18h54.06.927,CombinedMST_OA,2020.2.10,Win32,60,,,,,,,,,2,1,0.671115,0,4,4,4,1,,Practice/Gargle_B.wav,,2,2,SIMILAR,,Practice,,,,,,,,,,,,,,,,,,,,,,,,,,,,,,,,,,,,,,,,,,,,,,,,,,,,,,,,,,,,,,,,,,,,,,,,,,,,,,,,,,,,,,,,
,,,,,,,,,,,,,,5c537b8b87d9ef0001f195d4,2021-03-24_18h54.06.927,CombinedMST_OA,2020.2.10,Win32,60,,,,,,,,,,,,,,,,,,SoundMST/Elephant_C.wav,,2,3,NEW,,A,space,5.9308,1,0,1.486135,0,0,0,0,1,,,,,,,,,,,,,,,,,,,,,,,,,,,,,,,,,,,,,,,,,,,,,,,,,,,,,,,,,,,,,,,,,,,,,,,,,,,,,,
,,,,,,,,,,,,,,5c537b8b87d9ef0001f195d4,2021-03-24_18h54.06.927,CombinedMST_OA,2020.2.10,Win32,60,,,,,,,,,,,,,,,,,,SoundMST/Thunder_A.wav,,2,3,NEW,,A,,,2,1,3.31741,0,1,1,1,1,,,,,,,,,,,,,,,,,,,,,,,,,,,,,,,,,,,,,,,,,,,,,,,,,,,,,,,,,,,,,,,,,,,,,,,,,,,,,,
,,,,,,,,,,,,,,5c537b8b87d9ef0001f195d4,2021-03-24_18h54.06.927,CombinedMST_OA,2020.2.10,Win32,60,,,,,,,,,,,,,,,,,,SoundMST/Chime_B.wav,,2,3,NEW,,A,,,2,1,0.644465,0,2,2,2,1,,,,,,,,,,,,,,,,,,,,,,,,,,,,,,,,,,,,,,,,,,,,,,,,,,,,,,,,,,,,,,,,,,,,,,,,,,,,,,
,,,,,,,,,,,,,,5c537b8b87d9ef0001f195d4,2021-03-24_18h54.06.927,CombinedMST_OA,2020.2.10,Win32,60,,,,,,,,,,,,,,,,,,SoundMST/Toilet_B.wav,,2,3,NEW,,A,,,2,1,1.113755,0,3,3,3,1,,,,,,,,,,,,,,,,,,,,,,,,,,,,,,,,,,,,,,,,,,,,,,,,,,,,,,,,,,,,,,,,,,,,,,,,,,,,,,
,,,,,,,,,,,,,,5c537b8b87d9ef0001f195d4,2021-03-24_18h54.06.927,CombinedMST_OA,2020.2.10,Win32,60,,,,,,,,,,,,,,,,,,SoundMST/Typing.wav,,2,3,NEW,,A,,,2,1,0.73578,0,4,4,4,1,,,,,,,,,,,,,,,,,,,,,,,,,,,,,,,,,,,,,,,,,,,,,,,,,,,,,,,,,,,,,,,,,,,,,,,,,,,,,,
,,,,,,,,,,,,,,5c537b8b87d9ef0001f195d4,2021-03-24_18h54.06.927,CombinedMST_OA,2020.2.10,Win32,60,,,,,,,,,,,,,,,,,,SoundMST/Pour_B.wav,,2,3,NEW,,A,,,2,1,0.789665,0,5,5,5,1,,,,,,,,,,,,,,,,,,,,,,,,,,,,,,,,,,,,,,,,,,,,,,,,,,,,,,,,,,,,,,,,,,,,,,,,,,,,,,
,,,,,,,,,,,,,,5c537b8b87d9ef0001f195d4,2021-03-24_18h54.06.927,CombinedMST_OA,2020.2.10,Win32,60,,,,,,,,,,,,,,,,,,SoundMST/Sleighbells_B.wav,,2,3,NEW,,A,,,2,1,0.913285,0,6,6,6,1,,,,,,,,,,,,,,,,,,,,,,,,,,,,,,,,,,,,,,,,,,,,,,,,,,,,,,,,,,,,,,,,,,,,,,,,,,,,,,
,,,,,,,,,,,,,,5c537b8b87d9ef0001f195d4,2021-03-24_18h54.06.927,CombinedMST_OA,2020.2.10,Win32,60,,,,,,,,,,,,,,,,,,SoundMST/Buzz.wav,,2,3,NEW,,A,,,2,1,1.78885,0,7,7,7,1,,,,,,,,,,,,,,,,,,,,,,,,,,,,,,,,,,,,,,,,,,,,,,,,,,,,,,,,,,,,,,,,,,,,,,,,,,,,,,
,,,,,,,,,,,,,,5c537b8b87d9ef0001f195d4,2021-03-24_18h54.06.927,CombinedMST_OA,2020.2.10,Win32,60,,,,,,,,,,,,,,,,,,SoundMST/Baby_F.wav,,2,3,NEW,,A,,,2,1,0.783505,0,8,8,8,1,,,,,,,,,,,,,,,,,,,,,,,,,,,,,,,,,,,,,,,,,,,,,,,,,,,,,,,,,,,,,,,,,,,,,,,,,,,,,,
,,,,,,,,,,,,,,5c537b8b87d9ef0001f195d4,2021-03-24_18h54.06.927,CombinedMST_OA,2020.2.10,Win32,60,,,,,,,,,,,,,,,,,,SoundMST/Thunder_A.wav,,1,1,OLD,,A,,,1,1,1.53031,0,9,9,9,1,,,,,,,,,,,,,,,,,,,,,,,,,,,,,,,,,,,,,,,,,,,,,,,,,,,,,,,,,,,,,,,,,,,,,,,,,,,,,,
,,,,,,,,,,,,,,5c537b8b87d9ef0001f195d4,2021-03-24_18h54.06.927,CombinedMST_OA,2020.2.10,Win32,60,,,,,,,,,,,,,,,,,,SoundMST/Mosquito_B.wav,,2,3,NEW,,A,,,2,1,0.579965,0,10,10,10,1,,,,,,,,,,,,,,,,,,,,,,,,,,,,,,,,,,,,,,,,,,,,,,,,,,,,,,,,,,,,,,,,,,,,,,,,,,,,,,
,,,,,,,,,,,,,,5c537b8b87d9ef0001f195d4,2021-03-24_18h54.06.927,CombinedMST_OA,2020.2.10,Win32,60,,,,,,,,,,,,,,,,,,SoundMST/DialTone.wav,,2,3,NEW,,A,,,2,1,0.61241,0,11,11,11,1,,,,,,,,,,,,,,,,,,,,,,,,,,,,,,,,,,,,,,,,,,,,,,,,,,,,,,,,,,,,,,,,,,,,,,,,,,,,,,
,,,,,,,,,,,,,,5c537b8b87d9ef0001f195d4,2021-03-24_18h54.06.927,CombinedMST_OA,2020.2.10,Win32,60,,,,,,,,,,,,,,,,,,SoundMST/Elephant_A.wav,,2,2,SIMILAR,,A,,,2,1,1.685865,0,12,12,12,1,,,,,,,,,,,,,,,,,,,,,,,,,,,,,,,,,,,,,,,,,,,,,,,,,,,,,,,,,,,,,,,,,,,,,,,,,,,,,,
,,,,,,,,,,,,,,5c537b8b87d9ef0001f195d4,2021-03-24_18h54.06.927,CombinedMST_OA,2020.2.10,Win32,60,,,,,,,,,,,,,,,,,,SoundMST/Writing_A.wav,,2,3,NEW,,A,,,2,1,0.67413,0,13,13,13,1,,,,,,,,,,,,,,,,,,,,,,,,,,,,,,,,,,,,,,,,,,,,,,,,,,,,,,,,,,,,,,,,,,,,,,,,,,,,,,
,,,,,,,,,,,,,,5c537b8b87d9ef0001f195d4,2021-03-24_18h54.06.927,CombinedMST_OA,2020.2.10,Win32,60,,,,,,,,,,,,,,,,,,SoundMST/Faucet_A.wav,,2,3,NEW,,A,,,2,1,0.63969,0,14,14,14,1,,,,,,,,,,,,,,,,,,,,,,,,,,,,,,,,,,,,,,,,,,,,,,,,,,,,,,,,,,,,,,,,,,,,,,,,,,,,,,
,,,,,,,,,,,,,,5c537b8b87d9ef0001f195d4,2021-03-24_18h54.06.927,CombinedMST_OA,2020.2.10,Win32,60,,,,,,,,,,,,,,,,,,SoundMST/Typing.wav,,1,1,OLD,,A,,,1,1,1.759935,0,15,15,15,1,,,,,,,,,,,,,,,,,,,,,,,,,,,,,,,,,,,,,,,,,,,,,,,,,,,,,,,,,,,,,,,,,,,,,,,,,,,,,,
,,,,,,,,,,,,,,5c537b8b87d9ef0001f195d4,2021-03-24_18h54.06.927,CombinedMST_OA,2020.2.10,Win32,60,,,,,,,,,,,,,,,,,,SoundMST/Sleighbells_B.wav,,1,1,OLD,,A,,,1,1,0.428335,0,16,16,16,1,,,,,,,,,,,,,,,,,,,,,,,,,,,,,,,,,,,,,,,,,,,,,,,,,,,,,,,,,,,,,,,,,,,,,,,,,,,,,,
,,,,,,,,,,,,,,5c537b8b87d9ef0001f195d4,2021-03-24_18h54.06.927,CombinedMST_OA,2020.2.10,Win32,60,,,,,,,,,,,,,,,,,,SoundMST/Wind_B.wav,,2,3,NEW,,A,,,2,1,0.50069,0,17,17,17,1,,,,,,,,,,,,,,,,,,,,,,,,,,,,,,,,,,,,,,,,,,,,,,,,,,,,,,,,,,,,,,,,,,,,,,,,,,,,,,
,,,,,,,,,,,,,,5c537b8b87d9ef0001f195d4,2021-03-24_18h54.06.927,CombinedMST_OA,2020.2.10,Win32,60,,,,,,,,,,,,,,,,,,SoundMST/Toilet_B.wav,,1,1,OLD,,A,,,1,1,1.434275,0,18,18,18,1,,,,,,,,,,,,,,,,,,,,,,,,,,,,,,,,,,,,,,,,,,,,,,,,,,,,,,,,,,,,,,,,,,,,,,,,,,,,,,
,,,,,,,,,,,,,,5c537b8b87d9ef0001f195d4,2021-03-24_18h54.06.927,CombinedMST_OA,2020.2.10,Win32,60,,,,,,,,,,,,,,,,,,SoundMST/Pour_C.wav,,2,2,SIMILAR,,A,,,1,0,0.81699,0,19,19,19,1,,,,,,,,,,,,,,,,,,,,,,,,,,,,,,,,,,,,,,,,,,,,,,,,,,,,,,,,,,,,,,,,,,,,,,,,,,,,,,
,,,,,,,,,,,,,,5c537b8b87d9ef0001f195d4,2021-03-24_18h54.06.927,CombinedMST_OA,2020.2.10,Win32,60,,,,,,,,,,,,,,,,,,SoundMST/Chime_A.wav,,2,2,SIMILAR,,A,,,1,0,0.4503,0,20,20,20,1,,,,,,,,,,,,,,,,,,,,,,,,,,,,,,,,,,,,,,,,,,,,,,,,,,,,,,,,,,,,,,,,,,,,,,,,,,,,,,
,,,,,,,,,,,,,,5c537b8b87d9ef0001f195d4,2021-03-24_18h54.06.927,CombinedMST_OA,2020.2.10,Win32,60,,,,,,,,,,,,,,,,,,SoundMST/Buzz.wav,,1,1,OLD,,A,,,1,1,0.484135,0,21,21,21,1,,,,,,,,,,,,,,,,,,,,,,,,,,,,,,,,,,,,,,,,,,,,,,,,,,,,,,,,,,,,,,,,,,,,,,,,,,,,,,
,,,,,,,,,,,,,,5c537b8b87d9ef0001f195d4,2021-03-24_18h54.06.927,CombinedMST_OA,2020.2.10,Win32,60,,,,,,,,,,,,,,,,,,SoundMST/Writing_C.wav,,2,2,SIMILAR,,A,,,2,1,0.40042,0,22,22,22,1,,,,,,,,,,,,,,,,,,,,,,,,,,,,,,,,,,,,,,,,,,,,,,,,,,,,,,,,,,,,,,,,,,,,,,,,,,,,,,
,,,,,,,,,,,,,,5c537b8b87d9ef0001f195d4,2021-03-24_18h54.06.927,CombinedMST_OA,2020.2.10,Win32,60,,,,,,,,,,,,,,,,,,SoundMST/Mosquito_B.wav,,1,1,OLD,,A,,,2,0,0.649945,0,23,23,23,1,,,,,,,,,,,,,,,,,,,,,,,,,,,,,,,,,,,,,,,,,,,,,,,,,,,,,,,,,,,,,,,,,,,,,,,,,,,,,,
,,,,,,,,,,,,,,5c537b8b87d9ef0001f195d4,2021-03-24_18h54.06.927,CombinedMST_OA,2020.2.10,Win32,60,,,,,,,,,,,,,,,,,,SoundMST/Cough_C.wav,,2,3,NEW,,A,,,2,1,0.417515,0,24,24,24,1,,,,,,,,,,,,,,,,,,,,,,,,,,,,,,,,,,,,,,,,,,,,,,,,,,,,,,,,,,,,,,,,,,,,,,,,,,,,,,
,,,,,,,,,,,,,,5c537b8b87d9ef0001f195d4,2021-03-24_18h54.06.927,CombinedMST_OA,2020.2.10,Win32,60,,,,,,,,,,,,,,,,,,SoundMST/DialTone.wav,,1,1,OLD,,A,,,2,0,0.73349,0,25,25,25,1,,,,,,,,,,,,,,,,,,,,,,,,,,,,,,,,,,,,,,,,,,,,,,,,,,,,,,,,,,,,,,,,,,,,,,,,,,,,,,
,,,,,,,,,,,,,,5c537b8b87d9ef0001f195d4,2021-03-24_18h54.06.927,CombinedMST_OA,2020.2.10,Win32,60,,,,,,,,,,,,,,,,,,SoundMST/Puff_A.wav,,2,3,NEW,,A,,,2,1,0.750735,0,26,26,26,1,,,,,,,,,,,,,,,,,,,,,,,,,,,,,,,,,,,,,,,,,,,,,,,,,,,,,,,,,,,,,,,,,,,,,,,,,,,,,,
,,,,,,,,,,,,,,5c537b8b87d9ef0001f195d4,2021-03-24_18h54.06.927,CombinedMST_OA,2020.2.10,Win32,60,,,,,,,,,,,,,,,,,,SoundMST/Heartbeat.wav,,2,3,NEW,,A,,,2,1,0.63759,0,27,27,27,1,,,,,,,,,,,,,,,,,,,,,,,,,,,,,,,,,,,,,,,,,,,,,,,,,,,,,,,,,,,,,,,,,,,,,,,,,,,,,,
,,,,,,,,,,,,,,5c537b8b87d9ef0001f195d4,2021-03-24_18h54.06.927,CombinedMST_OA,2020.2.10,Win32,60,,,,,,,,,,,,,,,,,,SoundMST/IceDrop.wav,,2,3,NEW,,A,,,2,1,0.626645,0,28,28,28,1,,,,,,,,,,,,,,,,,,,,,,,,,,,,,,,,,,,,,,,,,,,,,,,,,,,,,,,,,,,,,,,,,,,,,,,,,,,,,,
,,,,,,,,,,,,,,5c537b8b87d9ef0001f195d4,2021-03-24_18h54.06.927,CombinedMST_OA,2020.2.10,Win32,60,,,,,,,,,,,,,,,,,,SoundMST/Bird_C.wav,,2,3,NEW,,A,,,2,1,1.52018,0,29,29,29,1,,,,,,,,,,,,,,,,,,,,,,,,,,,,,,,,,,,,,,,,,,,,,,,,,,,,,,,,,,,,,,,,,,,,,,,,,,,,,,
,,,,,,,,,,,,,,5c537b8b87d9ef0001f195d4,2021-03-24_18h54.06.927,CombinedMST_OA,2020.2.10,Win32,60,,,,,,,,,,,,,,,,,,SoundMST/Baby_E.wav,,2,2,SIMILAR,,A,,,2,1,0.659485,0,30,30,30,1,,,,,,,,,,,,,,,,,,,,,,,,,,,,,,,,,,,,,,,,,,,,,,,,,,,,,,,,,,,,,,,,,,,,,,,,,,,,,,
,,,,,,,,,,,,,,5c537b8b87d9ef0001f195d4,2021-03-24_18h54.06.927,CombinedMST_OA,2020.2.10,Win32,60,,,,,,,,,,,,,,,,,,SoundMST/Faucet_C.wav,,2,2,SIMILAR,,A,,,1,0,0.458525,0,31,31,31,1,,,,,,,,,,,,,,,,,,,,,,,,,,,,,,,,,,,,,,,,,,,,,,,,,,,,,,,,,,,,,,,,,,,,,,,,,,,,,,
,,,,,,,,,,,,,,5c537b8b87d9ef0001f195d4,2021-03-24_18h54.06.927,CombinedMST_OA,2020.2.10,Win32,60,,,,,,,,,,,,,,,,,,SoundMST/Duck_A.wav,,2,3,NEW,,A,,,2,1,0.70493,0,32,32,32,1,,,,,,,,,,,,,,,,,,,,,,,,,,,,,,,,,,,,,,,,,,,,,,,,,,,,,,,,,,,,,,,,,,,,,,,,,,,,,,
,,,,,,,,,,,,,,5c537b8b87d9ef0001f195d4,2021-03-24_18h54.06.927,CombinedMST_OA,2020.2.10,Win32,60,,,,,,,,,,,,,,,,,,SoundMST/Laugh_A.wav,,2,3,NEW,,A,,,2,1,0.53415,0,33,33,33,1,,,,,,,,,,,,,,,,,,,,,,,,,,,,,,,,,,,,,,,,,,,,,,,,,,,,,,,,,,,,,,,,,,,,,,,,,,,,,,
,,,,,,,,,,,,,,5c537b8b87d9ef0001f195d4,2021-03-24_18h54.06.927,CombinedMST_OA,2020.2.10,Win32,60,,,,,,,,,,,,,,,,,,SoundMST/Wind_B.wav,,1,1,OLD,,A,,,1,1,0.341735,0,34,34,34,1,,,,,,,,,,,,,,,,,,,,,,,,,,,,,,,,,,,,,,,,,,,,,,,,,,,,,,,,,,,,,,,,,,,,,,,,,,,,,,
,,,,,,,,,,,,,,5c537b8b87d9ef0001f195d4,2021-03-24_18h54.06.927,CombinedMST_OA,2020.2.10,Win32,60,,,,,,,,,,,,,,,,,,SoundMST/Chicken_A.wav,,2,3,NEW,,A,,,2,1,0.521645,0,35,35,35,1,,,,,,,,,,,,,,,,,,,,,,,,,,,,,,,,,,,,,,,,,,,,,,,,,,,,,,,,,,,,,,,,,,,,,,,,,,,,,,
,,,,,,,,,,,,,,5c537b8b87d9ef0001f195d4,2021-03-24_18h54.06.927,CombinedMST_OA,2020.2.10,Win32,60,,,,,,,,,,,,,,,,,,SoundMST/Guitar_B.wav,,2,3,NEW,,A,,,2,1,0.475285,0,36,36,36,1,,,,,,,,,,,,,,,,,,,,,,,,,,,,,,,,,,,,,,,,,,,,,,,,,,,,,,,,,,,,,,,,,,,,,,,,,,,,,,
,,,,,,,,,,,,,,5c537b8b87d9ef0001f195d4,2021-03-24_18h54.06.927,CombinedMST_OA,2020.2.10,Win32,60,,,,,,,,,,,,,,,,,,SoundMST/Cello.wav,,2,3,NEW,,A,,,2,1,0.45028,0,37,37,37,1,,,,,,,,,,,,,,,,,,,,,,,,,,,,,,,,,,,,,,,,,,,,,,,,,,,,,,,,,,,,,,,,,,,,,,,,,,,,,,
,,,,,,,,,,,,,,5c537b8b87d9ef0001f195d4,2021-03-24_18h54.06.927,CombinedMST_OA,2020.2.10,Win32,60,,,,,,,,,,,,,,,,,,SoundMST/Heartbeat.wav,,1,1,OLD,,A,,,1,1,0.500465,0,38,38,38,1,,,,,,,,,,,,,,,,,,,,,,,,,,,,,,,,,,,,,,,,,,,,,,,,,,,,,,,,,,,,,,,,,,,,,,,,,,,,,,
,,,,,,,,,,,,,,5c537b8b87d9ef0001f195d4,2021-03-24_18h54.06.927,CombinedMST_OA,2020.2.10,Win32,60,,,,,,,,,,,,,,,,,,SoundMST/Airplane_B.wav,,2,3,NEW,,A,,,2,1,2.025375,0,39,39,39,1,,,,,,,,,,,,,,,,,,,,,,,,,,,,,,,,,,,,,,,,,,,,,,,,,,,,,,,,,,,,,,,,,,,,,,,,,,,,,,
,,,,,,,,,,,,,,5c537b8b87d9ef0001f195d4,2021-03-24_18h54.06.927,CombinedMST_OA,2020.2.10,Win32,60,,,,,,,,,,,,,,,,,,SoundMST/Cough_E.wav,,2,2,SIMILAR,,A,,,1,0,3.112335,0,40,40,40,1,,,,,,,,,,,,,,,,,,,,,,,,,,,,,,,,,,,,,,,,,,,,,,,,,,,,,,,,,,,,,,,,,,,,,,,,,,,,,,
,,,,,,,,,,,,,,5c537b8b87d9ef0001f195d4,2021-03-24_18h54.06.927,CombinedMST_OA,2020.2.10,Win32,60,,,,,,,,,,,,,,,,,,SoundMST/Trumpet_B.wav,,2,3,NEW,,A,,,2,1,0.57181,0,41,41,41,1,,,,,,,,,,,,,,,,,,,,,,,,,,,,,,,,,,,,,,,,,,,,,,,,,,,,,,,,,,,,,,,,,,,,,,,,,,,,,,
,,,,,,,,,,,,,,5c537b8b87d9ef0001f195d4,2021-03-24_18h54.06.927,CombinedMST_OA,2020.2.10,Win32,60,,,,,,,,,,,,,,,,,,SoundMST/IceDrop.wav,,1,1,OLD,,A,,,1,1,0.507385,0,42,42,42,1,,,,,,,,,,,,,,,,,,,,,,,,,,,,,,,,,,,,,,,,,,,,,,,,,,,,,,,,,,,,,,,,,,,,,,,,,,,,,,
,,,,,,,,,,,,,,5c537b8b87d9ef0001f195d4,2021-03-24_18h54.06.927,CombinedMST_OA,2020.2.10,Win32,60,,,,,,,,,,,,,,,,,,SoundMST/Sneeze_B.wav,,2,3,NEW,,A,,,2,1,0.650445,0,43,43,43,1,,,,,,,,,,,,,,,,,,,,,,,,,,,,,,,,,,,,,,,,,,,,,,,,,,,,,,,,,,,,,,,,,,,,,,,,,,,,,,
,,,,,,,,,,,,,,5c537b8b87d9ef0001f195d4,2021-03-24_18h54.06.927,CombinedMST_OA,2020.2.10,Win32,60,,,,,,,,,,,,,,,,,,SoundMST/Puff_A.wav,,1,1,OLD,,A,,,1,1,0.552455,0,44,44,44,1,,,,,,,,,,,,,,,,,,,,,,,,,,,,,,,,,,,,,,,,,,,,,,,,,,,,,,,,,,,,,,,,,,,,,,,,,,,,,,
,,,,,,,,,,,,,,5c537b8b87d9ef0001f195d4,2021-03-24_18h54.06.927,CombinedMST_OA,2020.2.10,Win32,60,,,,,,,,,,,,,,,,,,SoundMST/Bird_A.wav,,2,2,SIMILAR,,A,,,2,1,1.217845,0,45,45,45,1,,,,,,,,,,,,,,,,,,,,,,,,,,,,,,,,,,,,,,,,,,,,,,,,,,,,,,,,,,,,,,,,,,,,,,,,,,,,,,
,,,,,,,,,,,,,,5c537b8b87d9ef0001f195d4,2021-03-24_18h54.06.927,CombinedMST_OA,2020.2.10,Win32,60,,,,,,,,,,,,,,,,,,SoundMST/Snore_C.wav,,2,3,NEW,,A,,,2,1,0.609905,0,46,46,46,1,,,,,,,,,,,,,,,,,,,,,,,,,,,,,,,,,,,,,,,,,,,,,,,,,,,,,,,,,,,,,,,,,,,,,,,,,,,,,,
,,,,,,,,,,,,,,5c537b8b87d9ef0001f195d4,2021-03-24_18h54.06.927,CombinedMST_OA,2020.2.10,Win32,60,,,,,,,,,,,,,,,,,,SoundMST/Guitar_B.wav,,1,1,OLD,,A,,,1,1,0.58379,0,47,47,47,1,,,,,,,,,,,,,,,,,,,,,,,,,,,,,,,,,,,,,,,,,,,,,,,,,,,,,,,,,,,,,,,,,,,,,,,,,,,,,,
,,,,,,,,,,,,,,5c537b8b87d9ef0001f195d4,2021-03-24_18h54.06.927,CombinedMST_OA,2020.2.10,Win32,60,,,,,,,,,,,,,,,,,,SoundMST/Cat_A.wav,,2,3,NEW,,A,,,2,1,0.66764,0,48,48,48,1,,,,,,,,,,,,,,,,,,,,,,,,,,,,,,,,,,,,,,,,,,,,,,,,,,,,,,,,,,,,,,,,,,,,,,,,,,,,,,
,,,,,,,,,,,,,,5c537b8b87d9ef0001f195d4,2021-03-24_18h54.06.927,CombinedMST_OA,2020.2.10,Win32,60,,,,,,,,,,,,,,,,,,SoundMST/Whistle_B.wav,,2,3,NEW,,A,,,2,1,0.617195,0,49,49,49,1,,,,,,,,,,,,,,,,,,,,,,,,,,,,,,,,,,,,,,,,,,,,,,,,,,,,,,,,,,,,,,,,,,,,,,,,,,,,,,
,,,,,,,,,,,,,,5c537b8b87d9ef0001f195d4,2021-03-24_18h54.06.927,CombinedMST_OA,2020.2.10,Win32,60,,,,,,,,,,,,,,,,,,SoundMST/Duck_B.wav,,2,2,SIMILAR,,A,,,2,1,0.500155,0,50,50,50,1,,,,,,,,,,,,,,,,,,,,,,,,,,,,,,,,,,,,,,,,,,,,,,,,,,,,,,,,,,,,,,,,,,,,,,,,,,,,,,
,,,,,,,,,,,,,,5c537b8b87d9ef0001f195d4,2021-03-24_18h54.06.927,CombinedMST_OA,2020.2.10,Win32,60,,,,,,,,,,,,,,,,,,SoundMST/Laugh_D.wav,,2,2,SIMILAR,,A,,,1,0,0.383105,0,51,51,51,1,,,,,,,,,,,,,,,,,,,,,,,,,,,,,,,,,,,,,,,,,,,,,,,,,,,,,,,,,,,,,,,,,,,,,,,,,,,,,,
,,,,,,,,,,,,,,5c537b8b87d9ef0001f195d4,2021-03-24_18h54.06.927,CombinedMST_OA,2020.2.10,Win32,60,,,,,,,,,,,,,,,,,,SoundMST/Chicken_A.wav,,1,1,OLD,,A,,,1,1,0.40014,0,52,52,52,1,,,,,,,,,,,,,,,,,,,,,,,,,,,,,,,,,,,,,,,,,,,,,,,,,,,,,,,,,,,,,,,,,,,,,,,,,,,,,,
,,,,,,,,,,,,,,5c537b8b87d9ef0001f195d4,2021-03-24_18h54.06.927,CombinedMST_OA,2020.2.10,Win32,60,,,,,,,,,,,,,,,,,,SoundMST/Cello.wav,,1,1,OLD,,A,,,1,1,0.500855,0,53,53,53,1,,,,,,,,,,,,,,,,,,,,,,,,,,,,,,,,,,,,,,,,,,,,,,,,,,,,,,,,,,,,,,,,,,,,,,,,,,,,,,
,,,,,,,,,,,,,,5c537b8b87d9ef0001f195d4,2021-03-24_18h54.06.927,CombinedMST_OA,2020.2.10,Win32,60,,,,,,,,,,,,,,,,,,SoundMST/Slurp.wav,,2,3,NEW,,A,,,2,1,0.50073,0,54,54,54,1,,,,,,,,,,,,,,,,,,,,,,,,,,,,,,,,,,,,,,,,,,,,,,,,,,,,,,,,,,,,,,,,,,,,,,,,,,,,,,
,,,,,,,,,,,,,,5c537b8b87d9ef0001f195d4,2021-03-24_18h54.06.927,CombinedMST_OA,2020.2.10,Win32,60,,,,,,,,,,,,,,,,,,SoundMST/Chomp_A.wav,,2,3,NEW,,A,,,2,1,0.597845,0,55,55,55,1,,,,,,,,,,,,,,,,,,,,,,,,,,,,,,,,,,,,,,,,,,,,,,,,,,,,,,,,,,,,,,,,,,,,,,,,,,,,,,
,,,,,,,,,,,,,,5c537b8b87d9ef0001f195d4,2021-03-24_18h54.06.927,CombinedMST_OA,2020.2.10,Win32,60,,,,,,,,,,,,,,,,,,SoundMST/Airplane_B.wav,,1,1,OLD,,A,,,1,1,0.800995,0,56,56,56,1,,,,,,,,,,,,,,,,,,,,,,,,,,,,,,,,,,,,,,,,,,,,,,,,,,,,,,,,,,,,,,,,,,,,,,,,,,,,,,
,,,,,,,,,,,,,,5c537b8b87d9ef0001f195d4,2021-03-24_18h54.06.927,CombinedMST_OA,2020.2.10,Win32,60,,,,,,,,,,,,,,,,,,SoundMST/ManWhistle.wav,,2,3,NEW,,A,,,2,1,0.403845,0,57,57,57,1,,,,,,,,,,,,,,,,,,,,,,,,,,,,,,,,,,,,,,,,,,,,,,,,,,,,,,,,,,,,,,,,,,,,,,,,,,,,,,
,,,,,,,,,,,,,,5c537b8b87d9ef0001f195d4,2021-03-24_18h54.06.927,CombinedMST_OA,2020.2.10,Win32,60,,,,,,,,,,,,,,,,,,SoundMST/Trumpet_B.wav,,1,1,OLD,,A,,,1,1,0.426955,0,58,58,58,1,,,,,,,,,,,,,,,,,,,,,,,,,,,,,,,,,,,,,,,,,,,,,,,,,,,,,,,,,,,,,,,,,,,,,,,,,,,,,,
,,,,,,,,,,,,,,5c537b8b87d9ef0001f195d4,2021-03-24_18h54.06.927,CombinedMST_OA,2020.2.10,Win32,60,,,,,,,,,,,,,,,,,,SoundMST/Cup.wav,,2,3,NEW,,A,,,2,1,0.680755,0,59,59,59,1,,,,,,,,,,,,,,,,,,,,,,,,,,,,,,,,,,,,,,,,,,,,,,,,,,,,,,,,,,,,,,,,,,,,,,,,,,,,,,
,,,,,,,,,,,,,,5c537b8b87d9ef0001f195d4,2021-03-24_18h54.06.927,CombinedMST_OA,2020.2.10,Win32,60,,,,,,,,,,,,,,,,,,SoundMST/Snore_E.wav,,2,2,SIMILAR,,A,,,1,0,0.21148,0,60,60,60,1,,,,,,,,,,,,,,,,,,,,,,,,,,,,,,,,,,,,,,,,,,,,,,,,,,,,,,,,,,,,,,,,,,,,,,,,,,,,,,
,,,,,,,,,,,,,,5c537b8b87d9ef0001f195d4,2021-03-24_18h54.06.927,CombinedMST_OA,2020.2.10,Win32,60,,,,,,,,,,,,,,,,,,SoundMST/Airhorn.wav,,2,3,NEW,,A,,,2,1,0.488455,0,61,61,61,1,,,,,,,,,,,,,,,,,,,,,,,,,,,,,,,,,,,,,,,,,,,,,,,,,,,,,,,,,,,,,,,,,,,,,,,,,,,,,,
,,,,,,,,,,,,,,5c537b8b87d9ef0001f195d4,2021-03-24_18h54.06.927,CombinedMST_OA,2020.2.10,Win32,60,,,,,,,,,,,,,,,,,,SoundMST/Whistle_C.wav,,2,2,SIMILAR,,A,,,2,1,0.633865,0,62,62,62,1,,,,,,,,,,,,,,,,,,,,,,,,,,,,,,,,,,,,,,,,,,,,,,,,,,,,,,,,,,,,,,,,,,,,,,,,,,,,,,
,,,,,,,,,,,,,,5c537b8b87d9ef0001f195d4,2021-03-24_18h54.06.927,CombinedMST_OA,2020.2.10,Win32,60,,,,,,,,,,,,,,,,,,SoundMST/Phone_D.wav,,2,3,NEW,,A,,,2,1,0.45032,0,63,63,63,1,,,,,,,,,,,,,,,,,,,,,,,,,,,,,,,,,,,,,,,,,,,,,,,,,,,,,,,,,,,,,,,,,,,,,,,,,,,,,,
,,,,,,,,,,,,,,5c537b8b87d9ef0001f195d4,2021-03-24_18h54.06.927,CombinedMST_OA,2020.2.10,Win32,60,,,,,,,,,,,,,,,,,,SoundMST/Sneeze_B.wav,,1,1,OLD,,A,,,1,1,1.30349,0,64,64,64,1,,,,,,,,,,,,,,,,,,,,,,,,,,,,,,,,,,,,,,,,,,,,,,,,,,,,,,,,,,,,,,,,,,,,,,,,,,,,,,
,,,,,,,,,,,,,,5c537b8b87d9ef0001f195d4,2021-03-24_18h54.06.927,CombinedMST_OA,2020.2.10,Win32,60,,,,,,,,,,,,,,,,,,SoundMST/Cat_A.wav,,1,1,OLD,,A,,,1,1,0.603995,0,65,65,65,1,,,,,,,,,,,,,,,,,,,,,,,,,,,,,,,,,,,,,,,,,,,,,,,,,,,,,,,,,,,,,,,,,,,,,,,,,,,,,,
,,,,,,,,,,,,,,5c537b8b87d9ef0001f195d4,2021-03-24_18h54.06.927,CombinedMST_OA,2020.2.10,Win32,60,,,,,,,,,,,,,,,,,,SoundMST/Bagpipe.wav,,2,3,NEW,,A,,,2,1,0.489025,0,66,66,66,1,,,,,,,,,,,,,,,,,,,,,,,,,,,,,,,,,,,,,,,,,,,,,,,,,,,,,,,,,,,,,,,,,,,,,,,,,,,,,,
,,,,,,,,,,,,,,5c537b8b87d9ef0001f195d4,2021-03-24_18h54.06.927,CombinedMST_OA,2020.2.10,Win32,60,,,,,,,,,,,,,,,,,,SoundMST/Slurp.wav,,1,1,OLD,,A,,,1,1,0.466945,0,67,67,67,1,,,,,,,,,,,,,,,,,,,,,,,,,,,,,,,,,,,,,,,,,,,,,,,,,,,,,,,,,,,,,,,,,,,,,,,,,,,,,,
,,,,,,,,,,,,,,5c537b8b87d9ef0001f195d4,2021-03-24_18h54.06.927,CombinedMST_OA,2020.2.10,Win32,60,,,,,,,,,,,,,,,,,,SoundMST/Bowlingpins.wav,,2,3,NEW,,A,,,2,1,0.55346,0,68,68,68,1,,,,,,,,,,,,,,,,,,,,,,,,,,,,,,,,,,,,,,,,,,,,,,,,,,,,,,,,,,,,,,,,,,,,,,,,,,,,,,
,,,,,,,,,,,,,,5c537b8b87d9ef0001f195d4,2021-03-24_18h54.06.927,CombinedMST_OA,2020.2.10,Win32,60,,,,,,,,,,,,,,,,,,SoundMST/Cow.wav,,2,3,NEW,,A,,,2,1,0.733725,0,69,69,69,1,,,,,,,,,,,,,,,,,,,,,,,,,,,,,,,,,,,,,,,,,,,,,,,,,,,,,,,,,,,,,,,,,,,,,,,,,,,,,,
,,,,,,,,,,,,,,5c537b8b87d9ef0001f195d4,2021-03-24_18h54.06.927,CombinedMST_OA,2020.2.10,Win32,60,,,,,,,,,,,,,,,,,,SoundMST/Siren_E.wav,,2,3,NEW,,A,,,2,1,0.601995,0,70,70,70,1,,,,,,,,,,,,,,,,,,,,,,,,,,,,,,,,,,,,,,,,,,,,,,,,,,,,,,,,,,,,,,,,,,,,,,,,,,,,,,
,,,,,,,,,,,,,,5c537b8b87d9ef0001f195d4,2021-03-24_18h54.06.927,CombinedMST_OA,2020.2.10,Win32,60,,,,,,,,,,,,,,,,,,SoundMST/ManWhistle.wav,,1,1,OLD,,A,,,1,1,0.46734,0,71,71,71,1,,,,,,,,,,,,,,,,,,,,,,,,,,,,,,,,,,,,,,,,,,,,,,,,,,,,,,,,,,,,,,,,,,,,,,,,,,,,,,
,,,,,,,,,,,,,,5c537b8b87d9ef0001f195d4,2021-03-24_18h54.06.927,CombinedMST_OA,2020.2.10,Win32,60,,,,,,,,,,,,,,,,,,SoundMST/Crow_B.wav,,2,3,NEW,,A,,,2,1,0.700415,0,72,72,72,1,,,,,,,,,,,,,,,,,,,,,,,,,,,,,,,,,,,,,,,,,,,,,,,,,,,,,,,,,,,,,,,,,,,,,,,,,,,,,,
,,,,,,,,,,,,,,5c537b8b87d9ef0001f195d4,2021-03-24_18h54.06.927,CombinedMST_OA,2020.2.10,Win32,60,,,,,,,,,,,,,,,,,,SoundMST/Chomp_C.wav,,2,2,SIMILAR,,A,,,1,0,0.56765,0,73,73,73,1,,,,,,,,,,,,,,,,,,,,,,,,,,,,,,,,,,,,,,,,,,,,,,,,,,,,,,,,,,,,,,,,,,,,,,,,,,,,,,
,,,,,,,,,,,,,,5c537b8b87d9ef0001f195d4,2021-03-24_18h54.06.927,CombinedMST_OA,2020.2.10,Win32,60,,,,,,,,,,,,,,,,,,SoundMST/Cup.wav,,1,1,OLD,,A,,,1,1,0.416685,0,74,74,74,1,,,,,,,,,,,,,,,,,,,,,,,,,,,,,,,,,,,,,,,,,,,,,,,,,,,,,,,,,,,,,,,,,,,,,,,,,,,,,,
,,,,,,,,,,,,,,5c537b8b87d9ef0001f195d4,2021-03-24_18h54.06.927,CombinedMST_OA,2020.2.10,Win32,60,,,,,,,,,,,,,,,,,,SoundMST/Bullfrog.wav,,2,3,NEW,,A,,,2,1,0.607465,0,75,75,75,1,,,,,,,,,,,,,,,,,,,,,,,,,,,,,,,,,,,,,,,,,,,,,,,,,,,,,,,,,,,,,,,,,,,,,,,,,,,,,,
,,,,,,,,,,,,,,5c537b8b87d9ef0001f195d4,2021-03-24_18h54.06.927,CombinedMST_OA,2020.2.10,Win32,60,,,,,,,,,,,,,,,,,,SoundMST/Phone_E.wav,,2,2,SIMILAR,,A,,,1,0,0.645145,0,76,76,76,1,,,,,,,,,,,,,,,,,,,,,,,,,,,,,,,,,,,,,,,,,,,,,,,,,,,,,,,,,,,,,,,,,,,,,,,,,,,,,,
,,,,,,,,,,,,,,5c537b8b87d9ef0001f195d4,2021-03-24_18h54.06.927,CombinedMST_OA,2020.2.10,Win32,60,,,,,,,,,,,,,,,,,,SoundMST/Bagpipe.wav,,1,1,OLD,,A,,,1,1,1.56056,0,77,77,77,1,,,,,,,,,,,,,,,,,,,,,,,,,,,,,,,,,,,,,,,,,,,,,,,,,,,,,,,,,,,,,,,,,,,,,,,,,,,,,,
,,,,,,,,,,,,,,5c537b8b87d9ef0001f195d4,2021-03-24_18h54.06.927,CombinedMST_OA,2020.2.10,Win32,60,,,,,,,,,,,,,,,,,,SoundMST/HairDryer_A.wav,,2,3,NEW,,A,,,2,1,2.2004,0,78,78,78,1,,,,,,,,,,,,,,,,,,,,,,,,,,,,,,,,,,,,,,,,,,,,,,,,,,,,,,,,,,,,,,,,,,,,,,,,,,,,,,
,,,,,,,,,,,,,,5c537b8b87d9ef0001f195d4,2021-03-24_18h54.06.927,CombinedMST_OA,2020.2.10,Win32,60,,,,,,,,,,,,,,,,,,SoundMST/Airhorn.wav,,1,1,OLD,,A,,,1,1,0.556665,0,79,79,79,1,,,,,,,,,,,,,,,,,,,,,,,,,,,,,,,,,,,,,,,,,,,,,,,,,,,,,,,,,,,,,,,,,,,,,,,,,,,,,,
,,,,,,,,,,,,,,5c537b8b87d9ef0001f195d4,2021-03-24_18h54.06.927,CombinedMST_OA,2020.2.10,Win32,60,,,,,,,,,,,,,,,,,,SoundMST/Hammer_A.wav,,2,3,NEW,,A,,,2,1,0.78358,0,80,80,80,1,,,,,,,,,,,,,,,,,,,,,,,,,,,,,,,,,,,,,,,,,,,,,,,,,,,,,,,,,,,,,,,,,,,,,,,,,,,,,,
,,,,,,,,,,,,,,5c537b8b87d9ef0001f195d4,2021-03-24_18h54.06.927,CombinedMST_OA,2020.2.10,Win32,60,,,,,,,,,,,,,,,,,,SoundMST/Cuckoo_A.wav,,2,3,NEW,,A,,,2,1,0.590955,0,81,81,81,1,,,,,,,,,,,,,,,,,,,,,,,,,,,,,,,,,,,,,,,,,,,,,,,,,,,,,,,,,,,,,,,,,,,,,,,,,,,,,,
,,,,,,,,,,,,,,5c537b8b87d9ef0001f195d4,2021-03-24_18h54.06.927,CombinedMST_OA,2020.2.10,Win32,60,,,,,,,,,,,,,,,,,,SoundMST/Cow.wav,,1,1,OLD,,A,,,1,1,0.450415,0,82,82,82,1,,,,,,,,,,,,,,,,,,,,,,,,,,,,,,,,,,,,,,,,,,,,,,,,,,,,,,,,,,,,,,,,,,,,,,,,,,,,,,
,,,,,,,,,,,,,,5c537b8b87d9ef0001f195d4,2021-03-24_18h54.06.927,CombinedMST_OA,2020.2.10,Win32,60,,,,,,,,,,,,,,,,,,SoundMST/Footsteps_C.wav,,2,3,NEW,,A,,,2,1,0.483975,0,83,83,83,1,,,,,,,,,,,,,,,,,,,,,,,,,,,,,,,,,,,,,,,,,,,,,,,,,,,,,,,,,,,,,,,,,,,,,,,,,,,,,,
,,,,,,,,,,,,,,5c537b8b87d9ef0001f195d4,2021-03-24_18h54.06.927,CombinedMST_OA,2020.2.10,Win32,60,,,,,,,,,,,,,,,,,,SoundMST/Dog_H.wav,,2,3,NEW,,A,,,2,1,0.60055,0,84,84,84,1,,,,,,,,,,,,,,,,,,,,,,,,,,,,,,,,,,,,,,,,,,,,,,,,,,,,,,,,,,,,,,,,,,,,,,,,,,,,,,
,,,,,,,,,,,,,,5c537b8b87d9ef0001f195d4,2021-03-24_18h54.06.927,CombinedMST_OA,2020.2.10,Win32,60,,,,,,,,,,,,,,,,,,SoundMST/Bowlingpins.wav,,1,1,OLD,,A,,,1,1,0.43392,0,85,85,85,1,,,,,,,,,,,,,,,,,,,,,,,,,,,,,,,,,,,,,,,,,,,,,,,,,,,,,,,,,,,,,,,,,,,,,,,,,,,,,,
,,,,,,,,,,,,,,5c537b8b87d9ef0001f195d4,2021-03-24_18h54.06.927,CombinedMST_OA,2020.2.10,Win32,60,,,,,,,,,,,,,,,,,,SoundMST/Piano_D.wav,,2,3,NEW,,A,,,2,1,0.73413,0,86,86,86,1,,,,,,,,,,,,,,,,,,,,,,,,,,,,,,,,,,,,,,,,,,,,,,,,,,,,,,,,,,,,,,,,,,,,,,,,,,,,,,
,,,,,,,,,,,,,,5c537b8b87d9ef0001f195d4,2021-03-24_18h54.06.927,CombinedMST_OA,2020.2.10,Win32,60,,,,,,,,,,,,,,,,,,SoundMST/Fireworks.wav,,2,3,NEW,,A,,,2,1,0.717435,0,87,87,87,1,,,,,,,,,,,,,,,,,,,,,,,,,,,,,,,,,,,,,,,,,,,,,,,,,,,,,,,,,,,,,,,,,,,,,,,,,,,,,,
,,,,,,,,,,,,,,5c537b8b87d9ef0001f195d4,2021-03-24_18h54.06.927,CombinedMST_OA,2020.2.10,Win32,60,,,,,,,,,,,,,,,,,,SoundMST/Bullfrog.wav,,1,1,OLD,,A,,,1,1,0.650125,0,88,88,88,1,,,,,,,,,,,,,,,,,,,,,,,,,,,,,,,,,,,,,,,,,,,,,,,,,,,,,,,,,,,,,,,,,,,,,,,,,,,,,,
,,,,,,,,,,,,,,5c537b8b87d9ef0001f195d4,2021-03-24_18h54.06.927,CombinedMST_OA,2020.2.10,Win32,60,,,,,,,,,,,,,,,,,,SoundMST/Siren_A.wav,,2,2,SIMILAR,,A,,,2,1,0.48372,0,89,89,89,1,,,,,,,,,,,,,,,,,,,,,,,,,,,,,,,,,,,,,,,,,,,,,,,,,,,,,,,,,,,,,,,,,,,,,,,,,,,,,,
,,,,,,,,,,,,,,5c537b8b87d9ef0001f195d4,2021-03-24_18h54.06.927,CombinedMST_OA,2020.2.10,Win32,60,,,,,,,,,,,,,,,,,,SoundMST/Crow_A.wav,,2,2,SIMILAR,,A,,,1,0,0.430755,0,90,90,90,1,,,,,,,,,,,,,,,,,,,,,,,,,,,,,,,,,,,,,,,,,,,,,,,,,,,,,,,,,,,,,,,,,,,,,,,,,,,,,,
,,,,,,,,,,,,,,5c537b8b87d9ef0001f195d4,2021-03-24_18h54.06.927,CombinedMST_OA,2020.2.10,Win32,60,,,,,,,,,,,,,,,,,,SoundMST/Goat_B.wav,,2,3,NEW,,A,,,2,1,0.419665,0,91,91,91,1,,,,,,,,,,,,,,,,,,,,,,,,,,,,,,,,,,,,,,,,,,,,,,,,,,,,,,,,,,,,,,,,,,,,,,,,,,,,,,
,,,,,,,,,,,,,,5c537b8b87d9ef0001f195d4,2021-03-24_18h54.06.927,CombinedMST_OA,2020.2.10,Win32,60,,,,,,,,,,,,,,,,,,SoundMST/HairDryer_A.wav,,1,1,OLD,,A,,,1,1,0.503725,0,92,92,92,1,,,,,,,,,,,,,,,,,,,,,,,,,,,,,,,,,,,,,,,,,,,,,,,,,,,,,,,,,,,,,,,,,,,,,,,,,,,,,,
,,,,,,,,,,,,,,5c537b8b87d9ef0001f195d4,2021-03-24_18h54.06.927,CombinedMST_OA,2020.2.10,Win32,60,,,,,,,,,,,,,,,,,,SoundMST/Cuckoo_A.wav,,1,1,OLD,,A,,,1,1,0.404275,0,93,93,93,1,,,,,,,,,,,,,,,,,,,,,,,,,,,,,,,,,,,,,,,,,,,,,,,,,,,,,,,,,,,,,,,,,,,,,,,,,,,,,,
,,,,,,,,,,,,,,5c537b8b87d9ef0001f195d4,2021-03-24_18h54.06.927,CombinedMST_OA,2020.2.10,Win32,60,,,,,,,,,,,,,,,,,,SoundMST/Coin_D.wav,,2,3,NEW,,A,,,2,1,0.584115,0,94,94,94,1,,,,,,,,,,,,,,,,,,,,,,,,,,,,,,,,,,,,,,,,,,,,,,,,,,,,,,,,,,,,,,,,,,,,,,,,,,,,,,
,,,,,,,,,,,,,,5c537b8b87d9ef0001f195d4,2021-03-24_18h54.06.927,CombinedMST_OA,2020.2.10,Win32,60,,,,,,,,,,,,,,,,,,SoundMST/Howl.wav,,2,3,NEW,,A,,,2,1,0.38391,0,95,95,95,1,,,,,,,,,,,,,,,,,,,,,,,,,,,,,,,,,,,,,,,,,,,,,,,,,,,,,,,,,,,,,,,,,,,,,,,,,,,,,,
,,,,,,,,,,,,,,5c537b8b87d9ef0001f195d4,2021-03-24_18h54.06.927,CombinedMST_OA,2020.2.10,Win32,60,,,,,,,,,,,,,,,,,,SoundMST/Hammer_A.wav,,1,1,OLD,,A,,,1,1,1.683745,0,96,96,96,1,,,,,,,,,,,,,,,,,,,,,,,,,,,,,,,,,,,,,,,,,,,,,,,,,,,,,,,,,,,,,,,,,,,,,,,,,,,,,,
,,,,,,,,,,,,,,5c537b8b87d9ef0001f195d4,2021-03-24_18h54.06.927,CombinedMST_OA,2020.2.10,Win32,60,,,,,,,,,,,,,,,,,,SoundMST/Helicopter_A.wav,,2,3,NEW,,A,,,2,1,0.590315,0,97,97,97,1,,,,,,,,,,,,,,,,,,,,,,,,,,,,,,,,,,,,,,,,,,,,,,,,,,,,,,,,,,,,,,,,,,,,,,,,,,,,,,
,,,,,,,,,,,,,,5c537b8b87d9ef0001f195d4,2021-03-24_18h54.06.927,CombinedMST_OA,2020.2.10,Win32,60,,,,,,,,,,,,,,,,,,SoundMST/Bubbles_A.wav,,2,3,NEW,,A,,,2,1,0.500425,0,98,98,98,1,,,,,,,,,,,,,,,,,,,,,,,,,,,,,,,,,,,,,,,,,,,,,,,,,,,,,,,,,,,,,,,,,,,,,,,,,,,,,,
,,,,,,,,,,,,,,5c537b8b87d9ef0001f195d4,2021-03-24_18h54.06.927,CombinedMST_OA,2020.2.10,Win32,60,,,,,,,,,,,,,,,,,,SoundMST/Footsteps_F.wav,,2,2,SIMILAR,,A,,,2,1,2.375675,0,99,99,99,1,,,,,,,,,,,,,,,,,,,,,,,,,,,,,,,,,,,,,,,,,,,,,,,,,,,,,,,,,,,,,,,,,,,,,,,,,,,,,,
,,,,,,,,,,,,,,5c537b8b87d9ef0001f195d4,2021-03-24_18h54.06.927,CombinedMST_OA,2020.2.10,Win32,60,,,,,,,,,,,,,,,,,,SoundMST/Growl_G.wav,,2,3,NEW,,A,,,2,1,0.436285,0,100,100,100,1,,,,,,,,,,,,,,,,,,,,,,,,,,,,,,,,,,,,,,,,,,,,,,,,,,,,,,,,,,,,,,,,,,,,,,,,,,,,,,
,,,,,,,,,,,,,,5c537b8b87d9ef0001f195d4,2021-03-24_18h54.06.927,CombinedMST_OA,2020.2.10,Win32,60,,,,,,,,,,,,,,,,,,SoundMST/Horse.wav,,2,3,NEW,,A,,,2,1,1.11122,0,101,101,101,1,,,,,,,,,,,,,,,,,,,,,,,,,,,,,,,,,,,,,,,,,,,,,,,,,,,,,,,,,,,,,,,,,,,,,,,,,,,,,,
,,,,,,,,,,,,,,5c537b8b87d9ef0001f195d4,2021-03-24_18h54.06.927,CombinedMST_OA,2020.2.10,Win32,60,,,,,,,,,,,,,,,,,,SoundMST/Piano_D.wav,,1,1,OLD,,A,,,1,1,0.447775,0,102,102,102,1,,,,,,,,,,,,,,,,,,,,,,,,,,,,,,,,,,,,,,,,,,,,,,,,,,,,,,,,,,,,,,,,,,,,,,,,,,,,,,
,,,,,,,,,,,,,,5c537b8b87d9ef0001f195d4,2021-03-24_18h54.06.927,CombinedMST_OA,2020.2.10,Win32,60,,,,,,,,,,,,,,,,,,SoundMST/Dog_F.wav,,2,2,SIMILAR,,A,,,1,0,1.479375,0,103,103,103,1,,,,,,,,,,,,,,,,,,,,,,,,,,,,,,,,,,,,,,,,,,,,,,,,,,,,,,,,,,,,,,,,,,,,,,,,,,,,,,
,,,,,,,,,,,,,,5c537b8b87d9ef0001f195d4,2021-03-24_18h54.06.927,CombinedMST_OA,2020.2.10,Win32,60,,,,,,,,,,,,,,,,,,SoundMST/Fireworks.wav,,1,1,OLD,,A,,,1,1,0.40143,0,104,104,104,1,,,,,,,,,,,,,,,,,,,,,,,,,,,,,,,,,,,,,,,,,,,,,,,,,,,,,,,,,,,,,,,,,,,,,,,,,,,,,,
,,,,,,,,,,,,,,5c537b8b87d9ef0001f195d4,2021-03-24_18h54.06.927,CombinedMST_OA,2020.2.10,Win32,60,,,,,,,,,,,,,,,,,,SoundMST/Printer.wav,,2,3,NEW,,A,,,2,1,0.27115,0,105,105,105,1,,,,,,,,,,,,,,,,,,,,,,,,,,,,,,,,,,,,,,,,,,,,,,,,,,,,,,,,,,,,,,,,,,,,,,,,,,,,,,
,,,,,,,,,,,,,,5c537b8b87d9ef0001f195d4,2021-03-24_18h54.06.927,CombinedMST_OA,2020.2.10,Win32,60,,,,,,,,,,,,,,,,,,SoundMST/Camera.wav,,2,3,NEW,,A,,,2,1,0.85738,0,106,106,106,1,,,,,,,,,,,,,,,,,,,,,,,,,,,,,,,,,,,,,,,,,,,,,,,,,,,,,,,,,,,,,,,,,,,,,,,,,,,,,,
,,,,,,,,,,,,,,5c537b8b87d9ef0001f195d4,2021-03-24_18h54.06.927,CombinedMST_OA,2020.2.10,Win32,60,,,,,,,,,,,,,,,,,,SoundMST/Clap_B.wav,,2,3,NEW,,A,,,2,1,1.064555,0,107,107,107,1,,,,,,,,,,,,,,,,,,,,,,,,,,,,,,,,,,,,,,,,,,,,,,,,,,,,,,,,,,,,,,,,,,,,,,,,,,,,,,
,,,,,,,,,,,,,,5c537b8b87d9ef0001f195d4,2021-03-24_18h54.06.927,CombinedMST_OA,2020.2.10,Win32,60,,,,,,,,,,,,,,,,,,SoundMST/PaperRip.wav,,2,3,NEW,,A,,,2,1,0.410395,0,108,108,108,1,,,,,,,,,,,,,,,,,,,,,,,,,,,,,,,,,,,,,,,,,,,,,,,,,,,,,,,,,,,,,,,,,,,,,,,,,,,,,,
,,,,,,,,,,,,,,5c537b8b87d9ef0001f195d4,2021-03-24_18h54.06.927,CombinedMST_OA,2020.2.10,Win32,60,,,,,,,,,,,,,,,,,,SoundMST/Coin_E.wav,,2,2,SIMILAR,,A,,,1,0,1.13418,0,109,109,109,1,,,,,,,,,,,,,,,,,,,,,,,,,,,,,,,,,,,,,,,,,,,,,,,,,,,,,,,,,,,,,,,,,,,,,,,,,,,,,,
,,,,,,,,,,,,,,5c537b8b87d9ef0001f195d4,2021-03-24_18h54.06.927,CombinedMST_OA,2020.2.10,Win32,60,,,,,,,,,,,,,,,,,,SoundMST/Droplet_B.wav,,2,3,NEW,,A,,,2,1,0.58382,0,110,110,110,1,,,,,,,,,,,,,,,,,,,,,,,,,,,,,,,,,,,,,,,,,,,,,,,,,,,,,,,,,,,,,,,,,,,,,,,,,,,,,,
,,,,,,,,,,,,,,5c537b8b87d9ef0001f195d4,2021-03-24_18h54.06.927,CombinedMST_OA,2020.2.10,Win32,60,,,,,,,,,,,,,,,,,,SoundMST/Steam.wav,,2,3,NEW,,A,,,2,1,0.500755,0,111,111,111,1,,,,,,,,,,,,,,,,,,,,,,,,,,,,,,,,,,,,,,,,,,,,,,,,,,,,,,,,,,,,,,,,,,,,,,,,,,,,,,
,,,,,,,,,,,,,,5c537b8b87d9ef0001f195d4,2021-03-24_18h54.06.927,CombinedMST_OA,2020.2.10,Win32,60,,,,,,,,,,,,,,,,,,SoundMST/Helicopter_A.wav,,1,1,OLD,,A,,,1,1,0.417565,0,112,112,112,1,,,,,,,,,,,,,,,,,,,,,,,,,,,,,,,,,,,,,,,,,,,,,,,,,,,,,,,,,,,,,,,,,,,,,,,,,,,,,,
,,,,,,,,,,,,,,5c537b8b87d9ef0001f195d4,2021-03-24_18h54.06.927,CombinedMST_OA,2020.2.10,Win32,60,,,,,,,,,,,,,,,,,,SoundMST/CarStart_E.wav,,2,3,NEW,,A,,,2,1,0.500185,0,113,113,113,1,,,,,,,,,,,,,,,,,,,,,,,,,,,,,,,,,,,,,,,,,,,,,,,,,,,,,,,,,,,,,,,,,,,,,,,,,,,,,,
,,,,,,,,,,,,,,5c537b8b87d9ef0001f195d4,2021-03-24_18h54.06.927,CombinedMST_OA,2020.2.10,Win32,60,,,,,,,,,,,,,,,,,,SoundMST/Howl.wav,,1,1,OLD,,A,,,1,1,0.617105,0,114,114,114,1,,,,,,,,,,,,,,,,,,,,,,,,,,,,,,,,,,,,,,,,,,,,,,,,,,,,,,,,,,,,,,,,,,,,,,,,,,,,,,
,,,,,,,,,,,,,,5c537b8b87d9ef0001f195d4,2021-03-24_18h54.06.927,CombinedMST_OA,2020.2.10,Win32,60,,,,,,,,,,,,,,,,,,SoundMST/Growl_H.wav,,2,2,SIMILAR,,A,,,1,0,0.433605,0,115,115,115,1,,,,,,,,,,,,,,,,,,,,,,,,,,,,,,,,,,,,,,,,,,,,,,,,,,,,,,,,,,,,,,,,,,,,,,,,,,,,,,
,,,,,,,,,,,,,,5c537b8b87d9ef0001f195d4,2021-03-24_18h54.06.927,CombinedMST_OA,2020.2.10,Win32,60,,,,,,,,,,,,,,,,,,SoundMST/Goat_C.wav,,2,2,SIMILAR,,A,,,1,0,2.849965,0,116,116,116,1,,,,,,,,,,,,,,,,,,,,,,,,,,,,,,,,,,,,,,,,,,,,,,,,,,,,,,,,,,,,,,,,,,,,,,,,,,,,,,
,,,,,,,,,,,,,,5c537b8b87d9ef0001f195d4,2021-03-24_18h54.06.927,CombinedMST_OA,2020.2.10,Win32,60,,,,,,,,,,,,,,,,,,SoundMST/Donkey.wav,,2,3,NEW,,A,,,2,1,0.425955,0,117,117,117,1,,,,,,,,,,,,,,,,,,,,,,,,,,,,,,,,,,,,,,,,,,,,,,,,,,,,,,,,,,,,,,,,,,,,,,,,,,,,,,
,,,,,,,,,,,,,,5c537b8b87d9ef0001f195d4,2021-03-24_18h54.06.927,CombinedMST_OA,2020.2.10,Win32,60,,,,,,,,,,,,,,,,,,SoundMST/PaperRip.wav,,1,1,OLD,,A,,,1,1,1.037505,0,118,118,118,1,,,,,,,,,,,,,,,,,,,,,,,,,,,,,,,,,,,,,,,,,,,,,,,,,,,,,,,,,,,,,,,,,,,,,,,,,,,,,,
,,,,,,,,,,,,,,5c537b8b87d9ef0001f195d4,2021-03-24_18h54.06.927,CombinedMST_OA,2020.2.10,Win32,60,,,,,,,,,,,,,,,,,,SoundMST/Bubbles_B.wav,,2,2,SIMILAR,,A,,,2,1,0.406395,0,119,119,119,1,,,,,,,,,,,,,,,,,,,,,,,,,,,,,,,,,,,,,,,,,,,,,,,,,,,,,,,,,,,,,,,,,,,,,,,,,,,,,,
,,,,,,,,,,,,,,5c537b8b87d9ef0001f195d4,2021-03-24_18h54.06.927,CombinedMST_OA,2020.2.10,Win32,60,,,,,,,,,,,,,,,,,,SoundMST/Horse.wav,,1,1,OLD,,A,,,1,1,1.00199,0,120,120,120,1,,,,,,,,,,,,,,,,,,,,,,,,,,,,,,,,,,,,,,,,,,,,,,,,,,,,,,,,,,,,,,,,,,,,,,,,,,,,,,
,,,,,,,,,,,,,,5c537b8b87d9ef0001f195d4,2021-03-24_18h54.06.927,CombinedMST_OA,2020.2.10,Win32,60,,,,,,,,,,,,,,,,,,SoundMST/Printer.wav,,1,1,OLD,,A,,,1,1,0.400595,0,121,121,121,1,,,,,,,,,,,,,,,,,,,,,,,,,,,,,,,,,,,,,,,,,,,,,,,,,,,,,,,,,,,,,,,,,,,,,,,,,,,,,,
,,,,,,,,,,,,,,5c537b8b87d9ef0001f195d4,2021-03-24_18h54.06.927,CombinedMST_OA,2020.2.10,Win32,60,,,,,,,,,,,,,,,,,,SoundMST/Camera.wav,,1,1,OLD,,A,,,1,1,0.701175,0,122,122,122,1,,,,,,,,,,,,,,,,,,,,,,,,,,,,,,,,,,,,,,,,,,,,,,,,,,,,,,,,,,,,,,,,,,,,,,,,,,,,,,
,,,,,,,,,,,,,,5c537b8b87d9ef0001f195d4,2021-03-24_18h54.06.927,CombinedMST_OA,2020.2.10,Win32,60,,,,,,,,,,,,,,,,,,SoundMST/Droplet_B.wav,,1,1,OLD,,A,,,1,1,0.550695,0,123,123,123,1,,,,,,,,,,,,,,,,,,,,,,,,,,,,,,,,,,,,,,,,,,,,,,,,,,,,,,,,,,,,,,,,,,,,,,,,,,,,,,
,,,,,,,,,,,,,,5c537b8b87d9ef0001f195d4,2021-03-24_18h54.06.927,CombinedMST_OA,2020.2.10,Win32,60,,,,,,,,,,,,,,,,,,SoundMST/Steam.wav,,1,1,OLD,,A,,,1,1,0.433685,0,124,124,124,1,,,,,,,,,,,,,,,,,,,,,,,,,,,,,,,,,,,,,,,,,,,,,,,,,,,,,,,,,,,,,,,,,,,,,,,,,,,,,,
,,,,,,,,,,,,,,5c537b8b87d9ef0001f195d4,2021-03-24_18h54.06.927,CombinedMST_OA,2020.2.10,Win32,60,,,,,,,,,,,,,,,,,,SoundMST/CarStart_D.wav,,2,2,SIMILAR,,A,,,2,1,0.516385,0,125,125,125,1,,,,,,,,,,,,,,,,,,,,,,,,,,,,,,,,,,,,,,,,,,,,,,,,,,,,,,,,,,,,,,,,,,,,,,,,,,,,,,
,,,,,,,,,,,,,,5c537b8b87d9ef0001f195d4,2021-03-24_18h54.06.927,CombinedMST_OA,2020.2.10,Win32,60,,,,,,,,,,,,,,,,,,SoundMST/Donkey.wav,,1,1,OLD,,A,,,1,1,0.43315,0,126,126,126,1,,,,,,,,,,,,,,,,,,,,,,,,,,,,,,,,,,,,,,,,,,,,,,,,,,,,,,,,,,,,,,,,,,,,,,,,,,,,,,
,,,,,,,,,,,,,,5c537b8b87d9ef0001f195d4,2021-03-24_18h54.06.927,CombinedMST_OA,2020.2.10,Win32,60,,,,,,,,,,,,,,,,,,SoundMST/Clap_C.wav,,2,2,SIMILAR,,A,,,1,0,0.650145,0,127,127,127,1,,,,,,,,,,,,,,,,,,,,,,,,,,,,,,,,,,,,,,,,,,,,,,,,,,,,,,,,,,,,,,,,,,,,,,,,,,,,,,
,,,,,,,,,,,,,,5c537b8b87d9ef0001f195d4,2021-03-24_18h54.06.927,CombinedMST_OA,2020.2.10,Win32,60,,,,,,,,,,,,,,,,,,,,,,,,,,,,,,,,,,,return,22.684585,Potato chips,0,0,0,0,1,,,,,,,,,,,,,,,,,,,,,,,,,,,,,,,,,,,,,,,,,,,,,,,,,,,,,,,,,,,,,,,,,,,,,,
,,,,,,,,,,,,,,5c537b8b87d9ef0001f195d4,2021-03-24_18h54.06.927,CombinedMST_OA,2020.2.10,Win32,60,,,,,,,,,,,,,,,,,,,,,,,,,,,,,,,,,,,,,,,,,,,0,0,0,1,1,0,1,,,,,,,,,,,,,,,,,,,,,,,,,,,,,,,,,,,,,,,,,,,,,,,,,,,,,,,,,,,,,,,
,,,,,,,,,,,,,2,5c537b8b87d9ef0001f195d4,2021-03-24_18h54.06.927,CombinedMST_OA,2020.2.10,Win32,60,space,22.53338,,,,,space,3.652105,,,,,,,,,Training/FO_YI_LAY.wav,,,,,,,,,,,,,,,,,,,,,,,,,,,,,,,,,space,13.394805,space,5.313735,2,1,2.496975,0,0,0,0,1,NEW,,,,,,,,,,,,,,,,,,,,,,,,,,,,,,,,,,,,,,,,,,,,,,,,,,
,,,,,,,,,,,,,1,5c537b8b87d9ef0001f195d4,2021-03-24_18h54.06.927,CombinedMST_OA,2020.2.10,Win32,60,,,,,,,,,,,,,,,,,Training/FO_YI_LAY.wav,,,,,,,,,,,,,,,,,,,,,,,,,,,,,,,,,,,,,1,1,1.444395,0,1,1,1,1,OLD,,,,,,,,,,,,,,,,,,,,,,,,,,,,,,,,,,,,,,,,,,,,,,,,,,
,,,,,,,,,,,,,2,5c537b8b87d9ef0001f195d4,2021-03-24_18h54.06.927,CombinedMST_OA,2020.2.10,Win32,60,,,,,,,,,,,,,,,,,Training/YO_BU_JAY.wav,,,,,,,,,,,,,,,,,,,,,,,,,,,,,,,,,,,,,2,1,1.128155,0,2,2,2,1,NEW,,,,,,,,,,,,,,,,,,,,,,,,,,,,,,,,,,,,,,,,,,,,,,,,,,
,,,,,,,,,,,,,2,5c537b8b87d9ef0001f195d4,2021-03-24_18h54.06.927,CombinedMST_OA,2020.2.10,Win32,60,,,,,,,,,,,,,,,,,Training/JAY_YO_BU.wav,,,,,,,,,,,,,,,,,,,,,,,,,,,,,,,,,,,,,2,1,1.273195,0,3,3,3,1,SIMILAR,,,,,,,,,,,,,,,,,,,,,,,,,,,,,,,,,,,,,,,,,,,,,,,,,,
,,,,,,,,,,,,,1,5c537b8b87d9ef0001f195d4,2021-03-24_18h54.06.927,CombinedMST_OA,2020.2.10,Win32,60,,,,,,,,,,,,,,,,,Training/FO_YI_LAY.wav,,,,,,,,,,,,,,,,,,,,,,,,,,,,,,,,,,,,,1,1,1.013935,0,4,4,4,1,OLD,,,,,,,,,,,,,,,,,,,,,,,,,,,,,,,,,,,,,,,,,,,,,,,,,,
,,,,,,,,,,,,TestWords/SI_VAI_CHU.wav,,5c537b8b87d9ef0001f195d4,2021-03-24_18h54.06.927,CombinedMST_OA,2020.2.10,Win32,60,,,,,,,,,,,,,,,,,,,,,,,,,,,,,,,,,,,,,,,,,,,,,,,,,,,,,,,,,,,,,,,space,2.75628,2,1,1.43354,0,0,0,0,1,2,NEW,NEW,F,,,,,,,,,,,,,,,,,,,,,,,,,,,,,,,,,,,,
,,,,,,,,,,,,TestWords/HO_NAY_VA.wav,,5c537b8b87d9ef0001f195d4,2021-03-24_18h54.06.927,CombinedMST_OA,2020.2.10,Win32,60,,,,,,,,,,,,,,,,,,,,,,,,,,,,,,,,,,,,,,,,,,,,,,,,,,,,,,,,,,,,,,,,,2,1,1.79721,0,1,1,1,1,2,NEW,NEW,F,,,,,,,,,,,,,,,,,,,,,,,,,,,,,,,,,,,,
,,,,,,,,,,,,TestWords/KAI_LAY_TA.wav,,5c537b8b87d9ef0001f195d4,2021-03-24_18h54.06.927,CombinedMST_OA,2020.2.10,Win32,60,,,,,,,,,,,,,,,,,,,,,,,,,,,,,,,,,,,,,,,,,,,,,,,,,,,,,,,,,,,,,,,,,2,1,1.36715,0,2,2,2,1,2,NEW,NEW,F,,,,,,,,,,,,,,,,,,,,,,,,,,,,,,,,,,,,
,,,,,,,,,,,,TestWords/PAI_LU_WA.wav,,5c537b8b87d9ef0001f195d4,2021-03-24_18h54.06.927,CombinedMST_OA,2020.2.10,Win32,60,,,,,,,,,,,,,,,,,,,,,,,,,,,,,,,,,,,,,,,,,,,,,,,,,,,,,,,,,,,,,,,,,2,1,2.000225,0,3,3,3,1,2,NEW,NEW,F,,,,,,,,,,,,,,,,,,,,,,,,,,,,,,,,,,,,
,,,,,,,,,,,,TestWords/WAI_VU_NA.wav,,5c537b8b87d9ef0001f195d4,2021-03-24_18h54.06.927,CombinedMST_OA,2020.2.10,Win32,60,,,,,,,,,,,,,,,,,,,,,,,,,,,,,,,,,,,,,,,,,,,,,,,,,,,,,,,,,,,,,,,,,2,1,2.617515,0,4,4,4,1,2,NEW,NEW,F,,,,,,,,,,,,,,,,,,,,,,,,,,,,,,,,,,,,
,,,,,,,,,,,,TestWords/VAI_HO_LA.wav,,5c537b8b87d9ef0001f195d4,2021-03-24_18h54.06.927,CombinedMST_OA,2020.2.10,Win32,60,,,,,,,,,,,,,,,,,,,,,,,,,,,,,,,,,,,,,,,,,,,,,,,,,,,,,,,,,,,,,,,,,1,0,3.12801,0,5,5,5,1,2,NEW,NEW,F,,,,,,,,,,,,,,,,,,,,,,,,,,,,,,,,,,,,
,,,,,,,,,,,,TestWords/GU_CHAI_PI.wav,,5c537b8b87d9ef0001f195d4,2021-03-24_18h54.06.927,CombinedMST_OA,2020.2.10,Win32,60,,,,,,,,,,,,,,,,,,,,,,,,,,,,,,,,,,,,,,,,,,,,,,,,,,,,,,,,,,,,,,,,,2,1,0.42967,0,6,6,6,1,2,NEW,NEW,F,,,,,,,,,,,,,,,,,,,,,,,,,,,,,,,,,,,,
,,,,,,,,,,,,TestWords/KO_SU_FAI.wav,,5c537b8b87d9ef0001f195d4,2021-03-24_18h54.06.927,CombinedMST_OA,2020.2.10,Win32,60,,,,,,,,,,,,,,,,,,,,,,,,,,,,,,,,,,,,,,,,,,,,,,,,,,,,,,,,,,,,,,,,,2,1,2.680285,0,7,7,7,1,2,NEW,NEW,F,,,,,,,,,,,,,,,,,,,,,,,,,,,,,,,,,,,,
,,,,,,,,,,,,TestWords/KAI_LAY_TA.wav,,5c537b8b87d9ef0001f195d4,2021-03-24_18h54.06.927,CombinedMST_OA,2020.2.10,Win32,60,,,,,,,,,,,,,,,,,,,,,,,,,,,,,,,,,,,,,,,,,,,,,,,,,,,,,,,,,,,,,,,,,2,0,2.09737,0,8,8,8,1,1,OLD,OLD,F,,,,,,,,,,,,,,,,,,,,,,,,,,,,,,,,,,,,
,,,,,,,,,,,,TestWords/BA_KAY_LI.wav,,5c537b8b87d9ef0001f195d4,2021-03-24_18h54.06.927,CombinedMST_OA,2020.2.10,Win32,60,,,,,,,,,,,,,,,,,,,,,,,,,,,,,,,,,,,,,,,,,,,,,,,,,,,,,,,,,,,,,,,,,2,1,0.784825,0,9,9,9,1,2,NEW,NEW,F,,,,,,,,,,,,,,,,,,,,,,,,,,,,,,,,,,,,
,,,,,,,,,,,,TestWords/DAI_RU_CHI.wav,,5c537b8b87d9ef0001f195d4,2021-03-24_18h54.06.927,CombinedMST_OA,2020.2.10,Win32,60,,,,,,,,,,,,,,,,,,,,,,,,,,,,,,,,,,,,,,,,,,,,,,,,,,,,,,,,,,,,,,,,,2,1,1.1404,0,10,10,10,1,2,NEW,NEW,F,,,,,,,,,,,,,,,,,,,,,,,,,,,,,,,,,,,,
,,,,,,,,,,,,TestWords/WAI_NA_VU.wav,,5c537b8b87d9ef0001f195d4,2021-03-24_18h54.06.927,CombinedMST_OA,2020.2.10,Win32,60,,,,,,,,,,,,,,,,,,,,,,,,,,,,,,,,,,,,,,,,,,,,,,,,,,,,,,,,,,,,,,,,,1,0,0.62622,0,11,11,11,1,2,NEW,SIMILAR,F,,,,,,,,,,,,,,,,,,,,,,,,,,,,,,,,,,,,
,,,,,,,,,,,,TestWords/DA_CHU_VAI.wav,,5c537b8b87d9ef0001f195d4,2021-03-24_18h54.06.927,CombinedMST_OA,2020.2.10,Win32,60,,,,,,,,,,,,,,,,,,,,,,,,,,,,,,,,,,,,,,,,,,,,,,,,,,,,,,,,,,,,,,,,,1,0,1.059875,0,12,12,12,1,2,NEW,NEW,F,,,,,,,,,,,,,,,,,,,,,,,,,,,,,,,,,,,,
,,,,,,,,,,,,TestWords/KAI_LAY_TA.wav,,5c537b8b87d9ef0001f195d4,2021-03-24_18h54.06.927,CombinedMST_OA,2020.2.10,Win32,60,,,,,,,,,,,,,,,,,,,,,,,,,,,,,,,,,,,,,,,,,,,,,,,,,,,,,,,,,,,,,,,,,1,1,2.644225,0,13,13,13,1,1,OLD,OLD,F,,,,,,,,,,,,,,,,,,,,,,,,,,,,,,,,,,,,
,,,,,,,,,,,,TestWords/KO_SU_FAI.wav,,5c537b8b87d9ef0001f195d4,2021-03-24_18h54.06.927,CombinedMST_OA,2020.2.10,Win32,60,,,,,,,,,,,,,,,,,,,,,,,,,,,,,,,,,,,,,,,,,,,,,,,,,,,,,,,,,,,,,,,,,2,0,1.62239,0,14,14,14,1,1,OLD,OLD,F,,,,,,,,,,,,,,,,,,,,,,,,,,,,,,,,,,,,
,,,,,,,,,,,,TestWords/VU_NA_WAI.wav,,5c537b8b87d9ef0001f195d4,2021-03-24_18h54.06.927,CombinedMST_OA,2020.2.10,Win32,60,,,,,,,,,,,,,,,,,,,,,,,,,,,,,,,,,,,,,,,,,,,,,,,,,,,,,,,,,,,,,,,,,1,0,1.90027,0,15,15,15,1,2,NEW,SIMILAR,F,,,,,,,,,,,,,,,,,,,,,,,,,,,,,,,,,,,,
,,,,,,,,,,,,TestWords/DAI_RU_CHI.wav,,5c537b8b87d9ef0001f195d4,2021-03-24_18h54.06.927,CombinedMST_OA,2020.2.10,Win32,60,,,,,,,,,,,,,,,,,,,,,,,,,,,,,,,,,,,,,,,,,,,,,,,,,,,,,,,,,,,,,,,,,2,0,0.79148,0,16,16,16,1,1,OLD,OLD,F,,,,,,,,,,,,,,,,,,,,,,,,,,,,,,,,,,,,
,,,,,,,,,,,,TestWords/KAY_LI_BA.wav,,5c537b8b87d9ef0001f195d4,2021-03-24_18h54.06.927,CombinedMST_OA,2020.2.10,Win32,60,,,,,,,,,,,,,,,,,,,,,,,,,,,,,,,,,,,,,,,,,,,,,,,,,,,,,,,,,,,,,,,,,2,1,1.457975,0,17,17,17,1,2,NEW,SIMILAR,F,,,,,,,,,,,,,,,,,,,,,,,,,,,,,,,,,,,,
,,,,,,,,,,,,TestWords/RAY_PA_TI.wav,,5c537b8b87d9ef0001f195d4,2021-03-24_18h54.06.927,CombinedMST_OA,2020.2.10,Win32,60,,,,,,,,,,,,,,,,,,,,,,,,,,,,,,,,,,,,,,,,,,,,,,,,,,,,,,,,,,,,,,,,,2,1,0.5944,0,18,18,18,1,2,NEW,NEW,F,,,,,,,,,,,,,,,,,,,,,,,,,,,,,,,,,,,,
,,,,,,,,,,,,TestWords/KAI_LAY_TA.wav,,5c537b8b87d9ef0001f195d4,2021-03-24_18h54.06.927,CombinedMST_OA,2020.2.10,Win32,60,,,,,,,,,,,,,,,,,,,,,,,,,,,,,,,,,,,,,,,,,,,,,,,,,,,,,,,,,,,,,,,,,1,1,1.253665,0,19,19,19,1,1,OLD,OLD,F,,,,,,,,,,,,,,,,,,,,,,,,,,,,,,,,,,,,
,,,,,,,,,,,,TestWords/VU_WAI_NA.wav,,5c537b8b87d9ef0001f195d4,2021-03-24_18h54.06.927,CombinedMST_OA,2020.2.10,Win32,60,,,,,,,,,,,,,,,,,,,,,,,,,,,,,,,,,,,,,,,,,,,,,,,,,,,,,,,,,,,,,,,,,1,0,0.50252,0,20,20,20,1,2,NEW,SIMILAR,F,,,,,,,,,,,,,,,,,,,,,,,,,,,,,,,,,,,,
,,,,,,,,,,,,TestWords/KO_SU_FAI.wav,,5c537b8b87d9ef0001f195d4,2021-03-24_18h54.06.927,CombinedMST_OA,2020.2.10,Win32,60,,,,,,,,,,,,,,,,,,,,,,,,,,,,,,,,,,,,,,,,,,,,,,,,,,,,,,,,,,,,,,,,,1,1,2.797885,0,21,21,21,1,1,OLD,OLD,F,,,,,,,,,,,,,,,,,,,,,,,,,,,,,,,,,,,,
,,,,,,,,,,,,TestWords/HI_NAY_VA.wav,,5c537b8b87d9ef0001f195d4,2021-03-24_18h54.06.927,CombinedMST_OA,2020.2.10,Win32,60,,,,,,,,,,,,,,,,,,,,,,,,,,,,,,,,,,,,,,,,,,,,,,,,,,,,,,,,,,,,,,,,,2,1,2.2501,0,22,22,22,1,2,NEW,NEW,F,,,,,,,,,,,,,,,,,,,,,,,,,,,,,,,,,,,,
,,,,,,,,,,,,TestWords/KAI_LAY_TA.wav,,5c537b8b87d9ef0001f195d4,2021-03-24_18h54.06.927,CombinedMST_OA,2020.2.10,Win32,60,,,,,,,,,,,,,,,,,,,,,,,,,,,,,,,,,,,,,,,,,,,,,,,,,,,,,,,,,,,,,,,,,1,1,1.00887,0,23,23,23,1,1,OLD,OLD,F,,,,,,,,,,,,,,,,,,,,,,,,,,,,,,,,,,,,
,,,,,,,,,,,,TestWords/RAY_PA_TI.wav,,5c537b8b87d9ef0001f195d4,2021-03-24_18h54.06.927,CombinedMST_OA,2020.2.10,Win32,60,,,,,,,,,,,,,,,,,,,,,,,,,,,,,,,,,,,,,,,,,,,,,,,,,,,,,,,,,,,,,,,,,2,0,2.09226,0,24,24,24,1,1,OLD,OLD,F,,,,,,,,,,,,,,,,,,,,,,,,,,,,,,,,,,,,
,,,,,,,,,,,,TestWords/DAI_RU_CHI.wav,,5c537b8b87d9ef0001f195d4,2021-03-24_18h54.06.927,CombinedMST_OA,2020.2.10,Win32,60,,,,,,,,,,,,,,,,,,,,,,,,,,,,,,,,,,,,,,,,,,,,,,,,,,,,,,,,,,,,,,,,,2,0,1.44342,0,25,25,25,1,1,OLD,OLD,F,,,,,,,,,,,,,,,,,,,,,,,,,,,,,,,,,,,,
,,,,,,,,,,,,TestWords/NA_VU_WAI.wav,,5c537b8b87d9ef0001f195d4,2021-03-24_18h54.06.927,CombinedMST_OA,2020.2.10,Win32,60,,,,,,,,,,,,,,,,,,,,,,,,,,,,,,,,,,,,,,,,,,,,,,,,,,,,,,,,,,,,,,,,,1,0,0.37275,0,26,26,26,1,2,NEW,SIMILAR,F,,,,,,,,,,,,,,,,,,,,,,,,,,,,,,,,,,,,
,,,,,,,,,,,,TestWords/KAY_BA_LI.wav,,5c537b8b87d9ef0001f195d4,2021-03-24_18h54.06.927,CombinedMST_OA,2020.2.10,Win32,60,,,,,,,,,,,,,,,,,,,,,,,,,,,,,,,,,,,,,,,,,,,,,,,,,,,,,,,,,,,,,,,,,1,0,3.23971,0,27,27,27,1,2,NEW,SIMILAR,F,,,,,,,,,,,,,,,,,,,,,,,,,,,,,,,,,,,,
,,,,,,,,,,,,TestWords/KO_SU_FAI.wav,,5c537b8b87d9ef0001f195d4,2021-03-24_18h54.06.927,CombinedMST_OA,2020.2.10,Win32,60,,,,,,,,,,,,,,,,,,,,,,,,,,,,,,,,,,,,,,,,,,,,,,,,,,,,,,,,,,,,,,,,,2,0,1.36276,0,28,28,28,1,1,OLD,OLD,F,,,,,,,,,,,,,,,,,,,,,,,,,,,,,,,,,,,,
,,,,,,,,,,,,TestWords/KAI_LAY_TA.wav,,5c537b8b87d9ef0001f195d4,2021-03-24_18h54.06.927,CombinedMST_OA,2020.2.10,Win32,60,,,,,,,,,,,,,,,,,,,,,,,,,,,,,,,,,,,,,,,,,,,,,,,,,,,,,,,,,,,,,,,,,1,1,1.783515,0,29,29,29,1,1,OLD,OLD,F,,,,,,,,,,,,,,,,,,,,,,,,,,,,,,,,,,,,
,,,,,,,,,,,,TestWords/RAY_PA_TI.wav,,5c537b8b87d9ef0001f195d4,2021-03-24_18h54.06.927,CombinedMST_OA,2020.2.10,Win32,60,,,,,,,,,,,,,,,,,,,,,,,,,,,,,,,,,,,,,,,,,,,,,,,,,,,,,,,,,,,,,,,,,1,1,0.80117,0,30,30,30,1,1,OLD,OLD,F,,,,,,,,,,,,,,,,,,,,,,,,,,,,,,,,,,,,
,,,,,,,,,,,,TestWords/NU_CHAY_SO.wav,,5c537b8b87d9ef0001f195d4,2021-03-24_18h54.06.927,CombinedMST_OA,2020.2.10,Win32,60,,,,,,,,,,,,,,,,,,,,,,,,,,,,,,,,,,,,,,,,,,,,,,,,,,,,,,,,,,,,,,,,,2,1,0.48363,0,31,31,31,1,2,NEW,NEW,F,,,,,,,,,,,,,,,,,,,,,,,,,,,,,,,,,,,,
,,,,,,,,,,,,TestWords/DAI_RU_CHI.wav,,5c537b8b87d9ef0001f195d4,2021-03-24_18h54.06.927,CombinedMST_OA,2020.2.10,Win32,60,,,,,,,,,,,,,,,,,,,,,,,,,,,,,,,,,,,,,,,,,,,,,,,,,,,,,,,,,,,,,,,,,1,1,2.433835,0,32,32,32,1,1,OLD,OLD,F,,,,,,,,,,,,,,,,,,,,,,,,,,,,,,,,,,,,
,,,,,,,,,,,,TestWords/NA_WAI_VU.wav,,5c537b8b87d9ef0001f195d4,2021-03-24_18h54.06.927,CombinedMST_OA,2020.2.10,Win32,60,,,,,,,,,,,,,,,,,,,,,,,,,,,,,,,,,,,,,,,,,,,,,,,,,,,,,,,,,,,,,,,,,1,0,0.7172,0,33,33,33,1,2,NEW,SIMILAR,F,,,,,,,,,,,,,,,,,,,,,,,,,,,,,,,,,,,,
,,,,,,,,,,,,TestWords/GA_MU_ZI.wav,,5c537b8b87d9ef0001f195d4,2021-03-24_18h54.06.927,CombinedMST_OA,2020.2.10,Win32,60,,,,,,,,,,,,,,,,,,,,,,,,,,,,,,,,,,,,,,,,,,,,,,,,,,,,,,,,,,,,,,,,,2,1,0.41753,0,34,34,34,1,2,NEW,NEW,F,,,,,,,,,,,,,,,,,,,,,,,,,,,,,,,,,,,,
,,,,,,,,,,,,TestWords/KAI_LAY_TA.wav,,5c537b8b87d9ef0001f195d4,2021-03-24_18h54.06.927,CombinedMST_OA,2020.2.10,Win32,60,,,,,,,,,,,,,,,,,,,,,,,,,,,,,,,,,,,,,,,,,,,,,,,,,,,,,,,,,,,,,,,,,1,1,0.71746,0,35,35,35,1,1,OLD,OLD,F,,,,,,,,,,,,,,,,,,,,,,,,,,,,,,,,,,,,
,,,,,,,,,,,,TestWords/LI_BA_KAY.wav,,5c537b8b87d9ef0001f195d4,2021-03-24_18h54.06.927,CombinedMST_OA,2020.2.10,Win32,60,,,,,,,,,,,,,,,,,,,,,,,,,,,,,,,,,,,,,,,,,,,,,,,,,,,,,,,,,,,,,,,,,2,1,0.33341,0,36,36,36,1,2,NEW,SIMILAR,F,,,,,,,,,,,,,,,,,,,,,,,,,,,,,,,,,,,,
,,,,,,,,,,,,TestWords/KO_SU_FAI.wav,,5c537b8b87d9ef0001f195d4,2021-03-24_18h54.06.927,CombinedMST_OA,2020.2.10,Win32,60,,,,,,,,,,,,,,,,,,,,,,,,,,,,,,,,,,,,,,,,,,,,,,,,,,,,,,,,,,,,,,,,,2,0,1.216695,0,37,37,37,1,1,OLD,OLD,F,,,,,,,,,,,,,,,,,,,,,,,,,,,,,,,,,,,,
,,,,,,,,,,,,TestWords/RAY_PA_TI.wav,,5c537b8b87d9ef0001f195d4,2021-03-24_18h54.06.927,CombinedMST_OA,2020.2.10,Win32,60,,,,,,,,,,,,,,,,,,,,,,,,,,,,,,,,,,,,,,,,,,,,,,,,,,,,,,,,,,,,,,,,,1,1,1.283845,0,38,38,38,1,1,OLD,OLD,F,,,,,,,,,,,,,,,,,,,,,,,,,,,,,,,,,,,,
,,,,,,,,,,,,TestWords/TAI_SA_GI.wav,,5c537b8b87d9ef0001f195d4,2021-03-24_18h54.06.927,CombinedMST_OA,2020.2.10,Win32,60,,,,,,,,,,,,,,,,,,,,,,,,,,,,,,,,,,,,,,,,,,,,,,,,,,,,,,,,,,,,,,,,,2,1,0.48378,0,39,39,39,1,2,NEW,NEW,F,,,,,,,,,,,,,,,,,,,,,,,,,,,,,,,,,,,,
,,,,,,,,,,,,TestWords/DAI_RU_CHI.wav,,5c537b8b87d9ef0001f195d4,2021-03-24_18h54.06.927,CombinedMST_OA,2020.2.10,Win32,60,,,,,,,,,,,,,,,,,,,,,,,,,,,,,,,,,,,,,,,,,,,,,,,,,,,,,,,,,,,,,,,,,2,0,1.766825,0,40,40,40,1,1,OLD,OLD,F,,,,,,,,,,,,,,,,,,,,,,,,,,,,,,,,,,,,
,,,,,,,,,,,,TestWords/GA_MU_ZI.wav,,5c537b8b87d9ef0001f195d4,2021-03-24_18h54.06.927,CombinedMST_OA,2020.2.10,Win32,60,,,,,,,,,,,,,,,,,,,,,,,,,,,,,,,,,,,,,,,,,,,,,,,,,,,,,,,,,,,,,,,,,2,0,0.900445,0,41,41,41,1,1,OLD,OLD,F,,,,,,,,,,,,,,,,,,,,,,,,,,,,,,,,,,,,
,,,,,,,,,,,,TestWords/KAI_LAY_TA.wav,,5c537b8b87d9ef0001f195d4,2021-03-24_18h54.06.927,CombinedMST_OA,2020.2.10,Win32,60,,,,,,,,,,,,,,,,,,,,,,,,,,,,,,,,,,,,,,,,,,,,,,,,,,,,,,,,,,,,,,,,,1,1,0.950625,0,42,42,42,1,1,OLD,OLD,F,,,,,,,,,,,,,,,,,,,,,,,,,,,,,,,,,,,,
,,,,,,,,,,,,TestWords/GI_SA_TAI.wav,,5c537b8b87d9ef0001f195d4,2021-03-24_18h54.06.927,CombinedMST_OA,2020.2.10,Win32,60,,,,,,,,,,,,,,,,,,,,,,,,,,,,,,,,,,,,,,,,,,,,,,,,,,,,,,,,,,,,,,,,,2,1,0.367075,0,43,43,43,1,2,NEW,SIMILAR,F,,,,,,,,,,,,,,,,,,,,,,,,,,,,,,,,,,,,
,,,,,,,,,,,,TestWords/BA_LI_KAY.wav,,5c537b8b87d9ef0001f195d4,2021-03-24_18h54.06.927,CombinedMST_OA,2020.2.10,Win32,60,,,,,,,,,,,,,,,,,,,,,,,,,,,,,,,,,,,,,,,,,,,,,,,,,,,,,,,,,,,,,,,,,2,1,3.33309,0,44,44,44,1,2,NEW,SIMILAR,F,,,,,,,,,,,,,,,,,,,,,,,,,,,,,,,,,,,,
,,,,,,,,,,,,TestWords/KO_SU_FAI.wav,,5c537b8b87d9ef0001f195d4,2021-03-24_18h54.06.927,CombinedMST_OA,2020.2.10,Win32,60,,,,,,,,,,,,,,,,,,,,,,,,,,,,,,,,,,,,,,,,,,,,,,,,,,,,,,,,,,,,,,,,,1,1,0.833805,0,45,45,45,1,1,OLD,OLD,F,,,,,,,,,,,,,,,,,,,,,,,,,,,,,,,,,,,,
,,,,,,,,,,,,TestWords/RAY_PA_TI.wav,,5c537b8b87d9ef0001f195d4,2021-03-24_18h54.06.927,CombinedMST_OA,2020.2.10,Win32,60,,,,,,,,,,,,,,,,,,,,,,,,,,,,,,,,,,,,,,,,,,,,,,,,,,,,,,,,,,,,,,,,,1,1,0.338545,0,46,46,46,1,1,OLD,OLD,F,,,,,,,,,,,,,,,,,,,,,,,,,,,,,,,,,,,,
,,,,,,,,,,,,TestWords/GA_MU_ZI.wav,,5c537b8b87d9ef0001f195d4,2021-03-24_18h54.06.927,CombinedMST_OA,2020.2.10,Win32,60,,,,,,,,,,,,,,,,,,,,,,,,,,,,,,,,,,,,,,,,,,,,,,,,,,,,,,,,,,,,,,,,,2,0,1.630365,0,47,47,47,1,1,OLD,OLD,F,,,,,,,,,,,,,,,,,,,,,,,,,,,,,,,,,,,,
,,,,,,,,,,,,TestWords/LU_HAI_BO.wav,,5c537b8b87d9ef0001f195d4,2021-03-24_18h54.06.927,CombinedMST_OA,2020.2.10,Win32,60,,,,,,,,,,,,,,,,,,,,,,,,,,,,,,,,,,,,,,,,,,,,,,,,,,,,,,,,,,,,,,,,,2,1,0.367315,0,48,48,48,1,2,NEW,NEW,F,,,,,,,,,,,,,,,,,,,,,,,,,,,,,,,,,,,,
,,,,,,,,,,,,TestWords/KAI_LAY_TA.wav,,5c537b8b87d9ef0001f195d4,2021-03-24_18h54.06.927,CombinedMST_OA,2020.2.10,Win32,60,,,,,,,,,,,,,,,,,,,,,,,,,,,,,,,,,,,,,,,,,,,,,,,,,,,,,,,,,,,,,,,,,1,1,0.48348,0,49,49,49,1,1,OLD,OLD,F,,,,,,,,,,,,,,,,,,,,,,,,,,,,,,,,,,,,
,,,,,,,,,,,,TestWords/DAI_RU_CHI.wav,,5c537b8b87d9ef0001f195d4,2021-03-24_18h54.06.927,CombinedMST_OA,2020.2.10,Win32,60,,,,,,,,,,,,,,,,,,,,,,,,,,,,,,,,,,,,,,,,,,,,,,,,,,,,,,,,,,,,,,,,,1,1,1.54982,0,50,50,50,1,1,OLD,OLD,F,,,,,,,,,,,,,,,,,,,,,,,,,,,,,,,,,,,,
,,,,,,,,,,,,TestWords/GI_TAI_SA.wav,,5c537b8b87d9ef0001f195d4,2021-03-24_18h54.06.927,CombinedMST_OA,2020.2.10,Win32,60,,,,,,,,,,,,,,,,,,,,,,,,,,,,,,,,,,,,,,,,,,,,,,,,,,,,,,,,,,,,,,,,,2,1,1.1008,0,51,51,51,1,2,NEW,SIMILAR,F,,,,,,,,,,,,,,,,,,,,,,,,,,,,,,,,,,,,
,,,,,,,,,,,,TestWords/LI_KAY_BA.wav,,5c537b8b87d9ef0001f195d4,2021-03-24_18h54.06.927,CombinedMST_OA,2020.2.10,Win32,60,,,,,,,,,,,,,,,,,,,,,,,,,,,,,,,,,,,,,,,,,,,,,,,,,,,,,,,,,,,,,,,,,1,0,1.2337,0,52,52,52,1,2,NEW,SIMILAR,F,,,,,,,,,,,,,,,,,,,,,,,,,,,,,,,,,,,,
,,,,,,,,,,,,TestWords/RAY_PA_TI.wav,,5c537b8b87d9ef0001f195d4,2021-03-24_18h54.06.927,CombinedMST_OA,2020.2.10,Win32,60,,,,,,,,,,,,,,,,,,,,,,,,,,,,,,,,,,,,,,,,,,,,,,,,,,,,,,,,,,,,,,,,,1,1,0.73162,0,53,53,53,1,1,OLD,OLD,F,,,,,,,,,,,,,,,,,,,,,,,,,,,,,,,,,,,,
,,,,,,,,,,,,TestWords/KO_SU_FAI.wav,,5c537b8b87d9ef0001f195d4,2021-03-24_18h54.06.927,CombinedMST_OA,2020.2.10,Win32,60,,,,,,,,,,,,,,,,,,,,,,,,,,,,,,,,,,,,,,,,,,,,,,,,,,,,,,,,,,,,,,,,,1,1,0.561715,0,54,54,54,1,1,OLD,OLD,F,,,,,,,,,,,,,,,,,,,,,,,,,,,,,,,,,,,,
,,,,,,,,,,,,TestWords/DAY_PU_MO.wav,,5c537b8b87d9ef0001f195d4,2021-03-24_18h54.06.927,CombinedMST_OA,2020.2.10,Win32,60,,,,,,,,,,,,,,,,,,,,,,,,,,,,,,,,,,,,,,,,,,,,,,,,,,,,,,,,,,,,,,,,,1,0,1.262005,0,55,55,55,1,2,NEW,NEW,F,,,,,,,,,,,,,,,,,,,,,,,,,,,,,,,,,,,,
,,,,,,,,,,,,TestWords/KAI_LAY_TA.wav,,5c537b8b87d9ef0001f195d4,2021-03-24_18h54.06.927,CombinedMST_OA,2020.2.10,Win32,60,,,,,,,,,,,,,,,,,,,,,,,,,,,,,,,,,,,,,,,,,,,,,,,,,,,,,,,,,,,,,,,,,1,1,0.41504,0,56,56,56,1,1,OLD,OLD,F,,,,,,,,,,,,,,,,,,,,,,,,,,,,,,,,,,,,
,,,,,,,,,,,,TestWords/GA_MU_ZI.wav,,5c537b8b87d9ef0001f195d4,2021-03-24_18h54.06.927,CombinedMST_OA,2020.2.10,Win32,60,,,,,,,,,,,,,,,,,,,,,,,,,,,,,,,,,,,,,,,,,,,,,,,,,,,,,,,,,,,,,,,,,2,0,0.61771,0,57,57,57,1,1,OLD,OLD,F,,,,,,,,,,,,,,,,,,,,,,,,,,,,,,,,,,,,
,,,,,,,,,,,,TestWords/CHU_LA_PAY.wav,,5c537b8b87d9ef0001f195d4,2021-03-24_18h54.06.927,CombinedMST_OA,2020.2.10,Win32,60,,,,,,,,,,,,,,,,,,,,,,,,,,,,,,,,,,,,,,,,,,,,,,,,,,,,,,,,,,,,,,,,,2,1,1.35022,0,58,58,58,1,2,NEW,NEW,F,,,,,,,,,,,,,,,,,,,,,,,,,,,,,,,,,,,,
,,,,,,,,,,,,TestWords/DAI_RU_CHI.wav,,5c537b8b87d9ef0001f195d4,2021-03-24_18h54.06.927,CombinedMST_OA,2020.2.10,Win32,60,,,,,,,,,,,,,,,,,,,,,,,,,,,,,,,,,,,,,,,,,,,,,,,,,,,,,,,,,,,,,,,,,1,1,1.192785,0,59,59,59,1,1,OLD,OLD,F,,,,,,,,,,,,,,,,,,,,,,,,,,,,,,,,,,,,
,,,,,,,,,,,,TestWords/SA_TAI_GI.wav,,5c537b8b87d9ef0001f195d4,2021-03-24_18h54.06.927,CombinedMST_OA,2020.2.10,Win32,60,,,,,,,,,,,,,,,,,,,,,,,,,,,,,,,,,,,,,,,,,,,,,,,,,,,,,,,,,,,,,,,,,2,1,0.45202,0,60,60,60,1,2,NEW,SIMILAR,F,,,,,,,,,,,,,,,,,,,,,,,,,,,,,,,,,,,,
,,,,,,,,,,,,TestWords/RAY_PA_TI.wav,,5c537b8b87d9ef0001f195d4,2021-03-24_18h54.06.927,CombinedMST_OA,2020.2.10,Win32,60,,,,,,,,,,,,,,,,,,,,,,,,,,,,,,,,,,,,,,,,,,,,,,,,,,,,,,,,,,,,,,,,,1,1,0.421095,0,61,61,61,1,1,OLD,OLD,F,,,,,,,,,,,,,,,,,,,,,,,,,,,,,,,,,,,,
,,,,,,,,,,,,TestWords/KAI_LAY_TA.wav,,5c537b8b87d9ef0001f195d4,2021-03-24_18h54.06.927,CombinedMST_OA,2020.2.10,Win32,60,,,,,,,,,,,,,,,,,,,,,,,,,,,,,,,,,,,,,,,,,,,,,,,,,,,,,,,,,,,,,,,,,1,1,0.80035,0,62,62,62,1,1,OLD,OLD,F,,,,,,,,,,,,,,,,,,,,,,,,,,,,,,,,,,,,
,,,,,,,,,,,,TestWords/FU_RAI_ZO.wav,,5c537b8b87d9ef0001f195d4,2021-03-24_18h54.06.927,CombinedMST_OA,2020.2.10,Win32,60,,,,,,,,,,,,,,,,,,,,,,,,,,,,,,,,,,,,,,,,,,,,,,,,,,,,,,,,,,,,,,,,,2,1,0.38626,0,63,63,63,1,2,NEW,NEW,F,,,,,,,,,,,,,,,,,,,,,,,,,,,,,,,,,,,,
,,,,,,,,,,,,TestWords/KO_SU_FAI.wav,,5c537b8b87d9ef0001f195d4,2021-03-24_18h54.06.927,CombinedMST_OA,2020.2.10,Win32,60,,,,,,,,,,,,,,,,,,,,,,,,,,,,,,,,,,,,,,,,,,,,,,,,,,,,,,,,,,,,,,,,,1,1,1.39054,0,64,64,64,1,1,OLD,OLD,F,,,,,,,,,,,,,,,,,,,,,,,,,,,,,,,,,,,,
,,,,,,,,,,,,TestWords/GA_MU_ZI.wav,,5c537b8b87d9ef0001f195d4,2021-03-24_18h54.06.927,CombinedMST_OA,2020.2.10,Win32,60,,,,,,,,,,,,,,,,,,,,,,,,,,,,,,,,,,,,,,,,,,,,,,,,,,,,,,,,,,,,,,,,,1,1,0.69773,0,65,65,65,1,1,OLD,OLD,F,,,,,,,,,,,,,,,,,,,,,,,,,,,,,,,,,,,,
,,,,,,,,,,,,TestWords/DAY_MO_PU.wav,,5c537b8b87d9ef0001f195d4,2021-03-24_18h54.06.927,CombinedMST_OA,2020.2.10,Win32,60,,,,,,,,,,,,,,,,,,,,,,,,,,,,,,,,,,,,,,,,,,,,,,,,,,,,,,,,,,,,,,,,,2,1,0.33669,0,66,66,66,1,2,NEW,SIMILAR,F,,,,,,,,,,,,,,,,,,,,,,,,,,,,,,,,,,,,
,,,,,,,,,,,,TestWords/DAI_RU_CHI.wav,,5c537b8b87d9ef0001f195d4,2021-03-24_18h54.06.927,CombinedMST_OA,2020.2.10,Win32,60,,,,,,,,,,,,,,,,,,,,,,,,,,,,,,,,,,,,,,,,,,,,,,,,,,,,,,,,,,,,,,,,,2,0,1.70241,0,67,67,67,1,1,OLD,OLD,F,,,,,,,,,,,,,,,,,,,,,,,,,,,,,,,,,,,,
,,,,,,,,,,,,TestWords/FI_GU_CHA.wav,,5c537b8b87d9ef0001f195d4,2021-03-24_18h54.06.927,CombinedMST_OA,2020.2.10,Win32,60,,,,,,,,,,,,,,,,,,,,,,,,,,,,,,,,,,,,,,,,,,,,,,,,,,,,,,,,,,,,,,,,,2,1,0.372925,0,68,68,68,1,2,NEW,NEW,F,,,,,,,,,,,,,,,,,,,,,,,,,,,,,,,,,,,,
,,,,,,,,,,,,TestWords/GA_MU_ZI.wav,,5c537b8b87d9ef0001f195d4,2021-03-24_18h54.06.927,CombinedMST_OA,2020.2.10,Win32,60,,,,,,,,,,,,,,,,,,,,,,,,,,,,,,,,,,,,,,,,,,,,,,,,,,,,,,,,,,,,,,,,,1,1,0.337185,0,69,69,69,1,1,OLD,OLD,F,,,,,,,,,,,,,,,,,,,,,,,,,,,,,,,,,,,,
,,,,,,,,,,,,TestWords/RAY_PA_TI.wav,,5c537b8b87d9ef0001f195d4,2021-03-24_18h54.06.927,CombinedMST_OA,2020.2.10,Win32,60,,,,,,,,,,,,,,,,,,,,,,,,,,,,,,,,,,,,,,,,,,,,,,,,,,,,,,,,,,,,,,,,,1,1,1.406235,0,70,70,70,1,1,OLD,OLD,F,,,,,,,,,,,,,,,,,,,,,,,,,,,,,,,,,,,,
,,,,,,,,,,,,TestWords/SA_GI_TAI.wav,,5c537b8b87d9ef0001f195d4,2021-03-24_18h54.06.927,CombinedMST_OA,2020.2.10,Win32,60,,,,,,,,,,,,,,,,,,,,,,,,,,,,,,,,,,,,,,,,,,,,,,,,,,,,,,,,,,,,,,,,,2,1,0.528955,0,71,71,71,1,2,NEW,SIMILAR,F,,,,,,,,,,,,,,,,,,,,,,,,,,,,,,,,,,,,
,,,,,,,,,,,,TestWords/MO_DAY_PU.wav,,5c537b8b87d9ef0001f195d4,2021-03-24_18h54.06.927,CombinedMST_OA,2020.2.10,Win32,60,,,,,,,,,,,,,,,,,,,,,,,,,,,,,,,,,,,,,,,,,,,,,,,,,,,,,,,,,,,,,,,,,2,1,2.447635,0,72,72,72,1,2,NEW,SIMILAR,F,,,,,,,,,,,,,,,,,,,,,,,,,,,,,,,,,,,,
,,,,,,,,,,,,TestWords/KO_SU_FAI.wav,,5c537b8b87d9ef0001f195d4,2021-03-24_18h54.06.927,CombinedMST_OA,2020.2.10,Win32,60,,,,,,,,,,,,,,,,,,,,,,,,,,,,,,,,,,,,,,,,,,,,,,,,,,,,,,,,,,,,,,,,,1,1,1.3044,0,73,73,73,1,1,OLD,OLD,F,,,,,,,,,,,,,,,,,,,,,,,,,,,,,,,,,,,,
,,,,,,,,,,,,TestWords/RAI_ZO_FU.wav,,5c537b8b87d9ef0001f195d4,2021-03-24_18h54.06.927,CombinedMST_OA,2020.2.10,Win32,60,,,,,,,,,,,,,,,,,,,,,,,,,,,,,,,,,,,,,,,,,,,,,,,,,,,,,,,,,,,,,,,,,2,1,1.78418,0,74,74,74,1,2,NEW,SIMILAR,F,,,,,,,,,,,,,,,,,,,,,,,,,,,,,,,,,,,,
,,,,,,,,,,,,TestWords/GA_MU_ZI.wav,,5c537b8b87d9ef0001f195d4,2021-03-24_18h54.06.927,CombinedMST_OA,2020.2.10,Win32,60,,,,,,,,,,,,,,,,,,,,,,,,,,,,,,,,,,,,,,,,,,,,,,,,,,,,,,,,,,,,,,,,,1,1,1.40284,0,75,75,75,1,1,OLD,OLD,F,,,,,,,,,,,,,,,,,,,,,,,,,,,,,,,,,,,,
,,,,,,,,,,,,TestWords/DAI_RU_CHI.wav,,5c537b8b87d9ef0001f195d4,2021-03-24_18h54.06.927,CombinedMST_OA,2020.2.10,Win32,60,,,,,,,,,,,,,,,,,,,,,,,,,,,,,,,,,,,,,,,,,,,,,,,,,,,,,,,,,,,,,,,,,1,1,0.757445,0,76,76,76,1,1,OLD,OLD,F,,,,,,,,,,,,,,,,,,,,,,,,,,,,,,,,,,,,
,,,,,,,,,,,,TestWords/TAI_GI_SA.wav,,5c537b8b87d9ef0001f195d4,2021-03-24_18h54.06.927,CombinedMST_OA,2020.2.10,Win32,60,,,,,,,,,,,,,,,,,,,,,,,,,,,,,,,,,,,,,,,,,,,,,,,,,,,,,,,,,,,,,,,,,2,1,0.402305,0,77,77,77,1,2,NEW,SIMILAR,F,,,,,,,,,,,,,,,,,,,,,,,,,,,,,,,,,,,,
,,,,,,,,,,,,TestWords/RAY_PA_TI.wav,,5c537b8b87d9ef0001f195d4,2021-03-24_18h54.06.927,CombinedMST_OA,2020.2.10,Win32,60,,,,,,,,,,,,,,,,,,,,,,,,,,,,,,,,,,,,,,,,,,,,,,,,,,,,,,,,,,,,,,,,,1,1,0.50055,0,78,78,78,1,1,OLD,OLD,F,,,,,,,,,,,,,,,,,,,,,,,,,,,,,,,,,,,,
,,,,,,,,,,,,TestWords/PU_DAY_MO.wav,,5c537b8b87d9ef0001f195d4,2021-03-24_18h54.06.927,CombinedMST_OA,2020.2.10,Win32,60,,,,,,,,,,,,,,,,,,,,,,,,,,,,,,,,,,,,,,,,,,,,,,,,,,,,,,,,,,,,,,,,,2,1,0.892635,0,79,79,79,1,2,NEW,SIMILAR,F,,,,,,,,,,,,,,,,,,,,,,,,,,,,,,,,,,,,
,,,,,,,,,,,,TestWords/KO_SU_FAI.wav,,5c537b8b87d9ef0001f195d4,2021-03-24_18h54.06.927,CombinedMST_OA,2020.2.10,Win32,60,,,,,,,,,,,,,,,,,,,,,,,,,,,,,,,,,,,,,,,,,,,,,,,,,,,,,,,,,,,,,,,,,1,1,1.403795,0,80,80,80,1,1,OLD,OLD,F,,,,,,,,,,,,,,,,,,,,,,,,,,,,,,,,,,,,
,,,,,,,,,,,,TestWords/ZO_RAI_FU.wav,,5c537b8b87d9ef0001f195d4,2021-03-24_18h54.06.927,CombinedMST_OA,2020.2.10,Win32,60,,,,,,,,,,,,,,,,,,,,,,,,,,,,,,,,,,,,,,,,,,,,,,,,,,,,,,,,,,,,,,,,,2,1,0.90277,0,81,81,81,1,2,NEW,SIMILAR,F,,,,,,,,,,,,,,,,,,,,,,,,,,,,,,,,,,,,
,,,,,,,,,,,,TestWords/GA_MU_ZI.wav,,5c537b8b87d9ef0001f195d4,2021-03-24_18h54.06.927,CombinedMST_OA,2020.2.10,Win32,60,,,,,,,,,,,,,,,,,,,,,,,,,,,,,,,,,,,,,,,,,,,,,,,,,,,,,,,,,,,,,,,,,1,1,0.933505,0,82,82,82,1,1,OLD,OLD,F,,,,,,,,,,,,,,,,,,,,,,,,,,,,,,,,,,,,
,,,,,,,,,,,,TestWords/RAY_PA_TI.wav,,5c537b8b87d9ef0001f195d4,2021-03-24_18h54.06.927,CombinedMST_OA,2020.2.10,Win32,60,,,,,,,,,,,,,,,,,,,,,,,,,,,,,,,,,,,,,,,,,,,,,,,,,,,,,,,,,,,,,,,,,1,1,0.683915,0,83,83,83,1,1,OLD,OLD,F,,,,,,,,,,,,,,,,,,,,,,,,,,,,,,,,,,,,
,,,,,,,,,,,,TestWords/DAI_RU_CHI.wav,,5c537b8b87d9ef0001f195d4,2021-03-24_18h54.06.927,CombinedMST_OA,2020.2.10,Win32,60,,,,,,,,,,,,,,,,,,,,,,,,,,,,,,,,,,,,,,,,,,,,,,,,,,,,,,,,,,,,,,,,,1,1,0.733415,0,84,84,84,1,1,OLD,OLD,F,,,,,,,,,,,,,,,,,,,,,,,,,,,,,,,,,,,,
,,,,,,,,,,,,TestWords/GA_MU_ZI.wav,,5c537b8b87d9ef0001f195d4,2021-03-24_18h54.06.927,CombinedMST_OA,2020.2.10,Win32,60,,,,,,,,,,,,,,,,,,,,,,,,,,,,,,,,,,,,,,,,,,,,,,,,,,,,,,,,,,,,,,,,,1,1,0.633885,0,85,85,85,1,1,OLD,OLD,F,,,,,,,,,,,,,,,,,,,,,,,,,,,,,,,,,,,,
,,,,,,,,,,,,TestWords/NO_WA_BAY.wav,,5c537b8b87d9ef0001f195d4,2021-03-24_18h54.06.927,CombinedMST_OA,2020.2.10,Win32,60,,,,,,,,,,,,,,,,,,,,,,,,,,,,,,,,,,,,,,,,,,,,,,,,,,,,,,,,,,,,,,,,,2,1,0.30046,0,86,86,86,1,2,NEW,NEW,F,,,,,,,,,,,,,,,,,,,,,,,,,,,,,,,,,,,,
,,,,,,,,,,,,TestWords/FU_ZO_RAI.wav,,5c537b8b87d9ef0001f195d4,2021-03-24_18h54.06.927,CombinedMST_OA,2020.2.10,Win32,60,,,,,,,,,,,,,,,,,,,,,,,,,,,,,,,,,,,,,,,,,,,,,,,,,,,,,,,,,,,,,,,,,2,1,0.533145,0,87,87,87,1,2,NEW,SIMILAR,F,,,,,,,,,,,,,,,,,,,,,,,,,,,,,,,,,,,,
,,,,,,,,,,,,TestWords/KO_SU_FAI.wav,,5c537b8b87d9ef0001f195d4,2021-03-24_18h54.06.927,CombinedMST_OA,2020.2.10,Win32,60,,,,,,,,,,,,,,,,,,,,,,,,,,,,,,,,,,,,,,,,,,,,,,,,,,,,,,,,,,,,,,,,,1,1,1.4003,0,88,88,88,1,1,OLD,OLD,F,,,,,,,,,,,,,,,,,,,,,,,,,,,,,,,,,,,,
,,,,,,,,,,,,TestWords/PU_MO_DAY.wav,,5c537b8b87d9ef0001f195d4,2021-03-24_18h54.06.927,CombinedMST_OA,2020.2.10,Win32,60,,,,,,,,,,,,,,,,,,,,,,,,,,,,,,,,,,,,,,,,,,,,,,,,,,,,,,,,,,,,,,,,,2,1,0.999995,0,89,89,89,1,2,NEW,SIMILAR,F,,,,,,,,,,,,,,,,,,,,,,,,,,,,,,,,,,,,
,,,,,,,,,,,,TestWords/RAY_PA_TI.wav,,5c537b8b87d9ef0001f195d4,2021-03-24_18h54.06.927,CombinedMST_OA,2020.2.10,Win32,60,,,,,,,,,,,,,,,,,,,,,,,,,,,,,,,,,,,,,,,,,,,,,,,,,,,,,,,,,,,,,,,,,1,1,0.35007,0,90,90,90,1,1,OLD,OLD,F,,,,,,,,,,,,,,,,,,,,,,,,,,,,,,,,,,,,
,,,,,,,,,,,,TestWords/DAI_RU_CHI.wav,,5c537b8b87d9ef0001f195d4,2021-03-24_18h54.06.927,CombinedMST_OA,2020.2.10,Win32,60,,,,,,,,,,,,,,,,,,,,,,,,,,,,,,,,,,,,,,,,,,,,,,,,,,,,,,,,,,,,,,,,,1,1,0.400145,0,91,91,91,1,1,OLD,OLD,F,,,,,,,,,,,,,,,,,,,,,,,,,,,,,,,,,,,,
,,,,,,,,,,,,TestWords/RAI_FU_ZO.wav,,5c537b8b87d9ef0001f195d4,2021-03-24_18h54.06.927,CombinedMST_OA,2020.2.10,Win32,60,,,,,,,,,,,,,,,,,,,,,,,,,,,,,,,,,,,,,,,,,,,,,,,,,,,,,,,,,,,,,,,,,1,0,1.06674,0,92,92,92,1,2,NEW,SIMILAR,F,,,,,,,,,,,,,,,,,,,,,,,,,,,,,,,,,,,,
,,,,,,,,,,,,TestWords/GA_MU_ZI.wav,,5c537b8b87d9ef0001f195d4,2021-03-24_18h54.06.927,CombinedMST_OA,2020.2.10,Win32,60,,,,,,,,,,,,,,,,,,,,,,,,,,,,,,,,,,,,,,,,,,,,,,,,,,,,,,,,,,,,,,,,,1,1,0.283705,0,93,93,93,1,1,OLD,OLD,F,,,,,,,,,,,,,,,,,,,,,,,,,,,,,,,,,,,,
,,,,,,,,,,,,TestWords/HA_SI_JAI.wav,,5c537b8b87d9ef0001f195d4,2021-03-24_18h54.06.927,CombinedMST_OA,2020.2.10,Win32,60,,,,,,,,,,,,,,,,,,,,,,,,,,,,,,,,,,,,,,,,,,,,,,,,,,,,,,,,,,,,,,,,,2,1,0.6172,0,94,94,94,1,2,NEW,NEW,F,,,,,,,,,,,,,,,,,,,,,,,,,,,,,,,,,,,,
,,,,,,,,,,,,TestWords/MO_PU_DAY.wav,,5c537b8b87d9ef0001f195d4,2021-03-24_18h54.06.927,CombinedMST_OA,2020.2.10,Win32,60,,,,,,,,,,,,,,,,,,,,,,,,,,,,,,,,,,,,,,,,,,,,,,,,,,,,,,,,,,,,,,,,,2,1,1.350415,0,95,95,95,1,2,NEW,SIMILAR,F,,,,,,,,,,,,,,,,,,,,,,,,,,,,,,,,,,,,
,,,,,,,,,,,,TestWords/LA_ZAY_CHAI.wav,,5c537b8b87d9ef0001f195d4,2021-03-24_18h54.06.927,CombinedMST_OA,2020.2.10,Win32,60,,,,,,,,,,,,,,,,,,,,,,,,,,,,,,,,,,,,,,,,,,,,,,,,,,,,,,,,,,,,,,,,,2,1,0.650685,0,96,96,96,1,2,NEW,NEW,F,,,,,,,,,,,,,,,,,,,,,,,,,,,,,,,,,,,,
,,,,,,,,,,,,TestWords/GA_MU_ZI.wav,,5c537b8b87d9ef0001f195d4,2021-03-24_18h54.06.927,CombinedMST_OA,2020.2.10,Win32,60,,,,,,,,,,,,,,,,,,,,,,,,,,,,,,,,,,,,,,,,,,,,,,,,,,,,,,,,,,,,,,,,,1,1,0.23358,0,97,97,97,1,1,OLD,OLD,F,,,,,,,,,,,,,,,,,,,,,,,,,,,,,,,,,,,,
,,,,,,,,,,,,TestWords/ZO_FU_RAI.wav,,5c537b8b87d9ef0001f195d4,2021-03-24_18h54.06.927,CombinedMST_OA,2020.2.10,Win32,60,,,,,,,,,,,,,,,,,,,,,,,,,,,,,,,,,,,,,,,,,,,,,,,,,,,,,,,,,,,,,,,,,1,0,1.28397,0,98,98,98,1,2,NEW,SIMILAR,F,,,,,,,,,,,,,,,,,,,,,,,,,,,,,,,,,,,,
,,,,,,,,,,,,TestWords/WAI_RO_JU.wav,,5c537b8b87d9ef0001f195d4,2021-03-24_18h54.06.927,CombinedMST_OA,2020.2.10,Win32,60,,,,,,,,,,,,,,,,,,,,,,,,,,,,,,,,,,,,,,,,,,,,,,,,,,,,,,,,,,,,,,,,,2,1,1.23424,0,99,99,99,1,2,NEW,NEW,F,,,,,,,,,,,,,,,,,,,,,,,,,,,,,,,,,,,,
,,,,,,,,,,,,,1,5c537b8b87d9ef0001f195d4,2021-03-24_18h54.06.927,CombinedMST_OA,2020.2.10,Win32,60,,,,,,,,,,,,,,,,,SyllableCheck/TI.wav,,,,,,,,,,,,,,,,,,,,,,,,,,,,,,,,,,,,,,,,,,,,,,,,,,,,,,,,,,,,return,8.866855,Blue,space,16.56186,1,1,1.92991,0,0,0,0,1,TI,TEE,DEE,SEE,,,,,,,,,,,,,,,,,,,
,,,,,,,,,,,,,2,5c537b8b87d9ef0001f195d4,2021-03-24_18h54.06.927,CombinedMST_OA,2020.2.10,Win32,60,,,,,,,,,,,,,,,,,SyllableCheck/SU.wav,,,,,,,,,,,,,,,,,,,,,,,,,,,,,,,,,,,,,,,,,,,,,,,,,,,,,,,,,,,,,,,,,2,1,3.387755,0,1,1,1,1,SU,SO,SU,ZU,,,,,,,,,,,,,,,,,,,
,,,,,,,,,,,,,2,5c537b8b87d9ef0001f195d4,2021-03-24_18h54.06.927,CombinedMST_OA,2020.2.10,Win32,60,,,,,,,,,,,,,,,,,SyllableCheck/KAY.wav,,,,,,,,,,,,,,,,,,,,,,,,,,,,,,,,,,,,,,,,,,,,,,,,,,,,,,,,,,,,,,,,,2,1,2.98807,0,2,2,2,1,KAY,KEE,KAY,HAY,,,,,,,,,,,,,,,,,,,
,,,,,,,,,,,,,3,5c537b8b87d9ef0001f195d4,2021-03-24_18h54.06.927,CombinedMST_OA,2020.2.10,Win32,60,,,,,,,,,,,,,,,,,SyllableCheck/BA.wav,,,,,,,,,,,,,,,,,,,,,,,,,,,,,,,,,,,,,,,,,,,,,,,,,,,,,,,,,,,,,,,,,3,1,1.9161,0,3,3,4,1,BA,PA,BEE,BA,,,,,,,,,,,,,,,,,,,
,,,,,,,,,,,,,3,5c537b8b87d9ef0001f195d4,2021-03-24_18h54.06.927,CombinedMST_OA,2020.2.10,Win32,60,,,,,,,,,,,,,,,,,SyllableCheck/FU.wav,,,,,,,,,,,,,,,,,,,,,,,,,,,,,,,,,,,,,,,,,,,,,,,,,,,,,,,,,,,,,,,,,3,1,1.620395,0,4,4,3,1,FU,VU,FO,FU,,,,,,,,,,,,,,,,,,,
,,,,,,,,,,,,,,5c537b8b87d9ef0001f195d4,2021-03-24_18h54.06.927,CombinedMST_OA,2020.2.10,Win32,60,,,,,,,,,,,,,,,,,,,,,,,,,,,,,,,,,,,,,,,,,,,,,,,,,,,,,,,,,,,,,,,,,,,,,,,,,,,,,,,,,,,,,,,,,,,,,,0,0,0,0,1,,,,,,,,,,,,,,
,,,,,,,,,,,,,,5c537b8b87d9ef0001f195d4,2021-03-24_18h54.06.927,CombinedMST_OA,2020.2.10,Win32,60,,,,,,,,,,,,,,,,,,,,,,,,,,,,,,,,,,,,,,,,,,,0,1,1,0,1,1,0,,,,,,,,,,,,,,,,,,,,,,,,,,,,,,,,,,,,,,,,,,,,,,,,,,,,,,,,,,,,,,,
,,,,,,,,,,,,,,5c537b8b87d9ef0001f195d4,2021-03-24_18h54.06.927,CombinedMST_OA,2020.2.10,Win32,60,,,,,,,,,,,,,,,,,,,SoundMST/Piano_D.wav,,,,SAME,GS,,,,,,,,,,,,,,,,,,,,,,,,,,,,,,,,,,,,,,,,,,,,,,,,,,,,,,,,,,,,,,,,,,,,,,,,,,,space,19.56729,space,15.65076,return,9.289665,piano notes,0,0,0,77,1,,
,,,,,,,,,,,,,,5c537b8b87d9ef0001f195d4,2021-03-24_18h54.06.927,CombinedMST_OA,2020.2.10,Win32,60,,,,,,,,,,,,,,,,,,,SoundMST/Whistle_C.wav,,,,SIMILAR,GS,,,,,,,,,,,,,,,,,,,,,,,,,,,,,,,,,,,,,,,,,,,,,,,,,,,,,,,,,,,,,,,,,,,,,,,,,,,,,,,return,7.10042, whistle,0,1,1,11,1,,
,,,,,,,,,,,,,,5c537b8b87d9ef0001f195d4,2021-03-24_18h54.06.927,CombinedMST_OA,2020.2.10,Win32,60,,,,,,,,,,,,,,,,,,,SoundMST/Bird_E.wav,,,,SIMILAR,GS,,,,,,,,,,,,,,,,,,,,,,,,,,,,,,,,,,,,,,,,,,,,,,,,,,,,,,,,,,,,,,,,,,,,,,,,,,,,,,,return,6.153975, birdsong,0,2,2,31,1,,
,,,,,,,,,,,,,,5c537b8b87d9ef0001f195d4,2021-03-24_18h54.06.927,CombinedMST_OA,2020.2.10,Win32,60,,,,,,,,,,,,,,,,,,,SoundMST/CarStart_E.wav,,,,SIMILAR,GS,,,,,,,,,,,,,,,,,,,,,,,,,,,,,,,,,,,,,,,,,,,,,,,,,,,,,,,,,,,,,,,,,,,,,,,,,,,,,,,return,10.775105, car engine start,0,3,3,46,1,,
,,,,,,,,,,,,,,5c537b8b87d9ef0001f195d4,2021-03-24_18h54.06.927,CombinedMST_OA,2020.2.10,Win32,60,,,,,,,,,,,,,,,,,,,SoundMST/Phone_D.wav,,,,SIMILAR,GS,,,,,,,,,,,,,,,,,,,,,,,,,,,,,,,,,,,,,,,,,,,,,,,,,,,,,,,,,,,,,,,,,,,,,,,,,,,,,,,return,15.58712, telephone ringing,0,4,4,37,1,,
,,,,,,,,,,,,,,5c537b8b87d9ef0001f195d4,2021-03-24_18h54.06.927,CombinedMST_OA,2020.2.10,Win32,60,,,,,,,,,,,,,,,,,,,SoundMST/Duck_C.wav,,,,SIMILAR,GS,,,,,,,,,,,,,,,,,,,,,,,,,,,,,,,,,,,,,,,,,,,,,,,,,,,,,,,,,,,,,,,,,,,,,,,,,,,,,,,return,9.31078, bird honking,0,5,5,32,1,,
,,,,,,,,,,,,,,5c537b8b87d9ef0001f195d4,2021-03-24_18h54.06.927,CombinedMST_OA,2020.2.10,Win32,60,,,,,,,,,,,,,,,,,,,SoundMST/Camera.wav,,,,SAME,GS,,,,,,,,,,,,,,,,,,,,,,,,,,,,,,,,,,,,,,,,,,,,,,,,,,,,,,,,,,,,,,,,,,,,,,,,,,,,,,,return,17.850115, photo lens snap,0,6,6,84,1,,
,,,,,,,,,,,,,,5c537b8b87d9ef0001f195d4,2021-03-24_18h54.06.927,CombinedMST_OA,2020.2.10,Win32,60,,,,,,,,,,,,,,,,,,,SoundMST/Writing_A.wav,,,,SIMILAR,GS,,,,,,,,,,,,,,,,,,,,,,,,,,,,,,,,,,,,,,,,,,,,,,,,,,,,,,,,,,,,,,,,,,,,,,,,,,,,,,,return,11.254405, chalk writing,0,7,7,27,1,,
,,,,,,,,,,,,,,5c537b8b87d9ef0001f195d4,2021-03-24_18h54.06.927,CombinedMST_OA,2020.2.10,Win32,60,,,,,,,,,,,,,,,,,,,SoundMST/Growl_H.wav,,,,SIMILAR,GS,,,,,,,,,,,,,,,,,,,,,,,,,,,,,,,,,,,,,,,,,,,,,,,,,,,,,,,,,,,,,,,,,,,,,,,,,,,,,,,return,6.775065, tiger growl,0,8,8,19,1,,
,,,,,,,,,,,,,,5c537b8b87d9ef0001f195d4,2021-03-24_18h54.06.927,CombinedMST_OA,2020.2.10,Win32,60,,,,,,,,,,,,,,,,,,,SoundMST/Snore_D.wav,,,,SIMILAR,GS,,,,,,,,,,,,,,,,,,,,,,,,,,,,,,,,,,,,,,,,,,,,,,,,,,,,,,,,,,,,,,,,,,,,,,,,,,,,,,,return,7.043345, snoring,0,9,9,34,1,,
,,,,,,,,,,,,,,5c537b8b87d9ef0001f195d4,2021-03-24_18h54.06.927,CombinedMST_OA,2020.2.10,Win32,60,,,,,,,,,,,,,,,,,,,SoundMST/ManWhistle.wav,,,,SAME,GS,,,,,,,,,,,,,,,,,,,,,,,,,,,,,,,,,,,,,,,,,,,,,,,,,,,,,,,,,,,,,,,,,,,,,,,,,,,,,,,return,6.372475, man whistling,0,10,10,67,1,,
,,,,,,,,,,,,,,5c537b8b87d9ef0001f195d4,2021-03-24_18h54.06.927,CombinedMST_OA,2020.2.10,Win32,60,,,,,,,,,,,,,,,,,,,SoundMST/Laugh_D.wav,,,,SIMILAR,GS,,,,,,,,,,,,,,,,,,,,,,,,,,,,,,,,,,,,,,,,,,,,,,,,,,,,,,,,,,,,,,,,,,,,,,,,,,,,,,,return,7.944595, people laughing,0,11,11,9,1,,
,,,,,,,,,,,,,,5c537b8b87d9ef0001f195d4,2021-03-24_18h54.06.927,CombinedMST_OA,2020.2.10,Win32,60,,,,,,,,,,,,,,,,,,,SoundMST/Trumpet_B.wav,,,,SAME,GS,,,,,,,,,,,,,,,,,,,,,,,,,,,,,,,,,,,,,,,,,,,,,,,,,,,,,,,,,,,,,,,,,,,,,,,,,,,,,,,return,11.485945, trumpet playing,0,12,12,63,1,,
,,,,,,,,,,,,,,5c537b8b87d9ef0001f195d4,2021-03-24_18h54.06.927,CombinedMST_OA,2020.2.10,Win32,60,,,,,,,,,,,,,,,,,,,SoundMST/Typing.wav,,,,SAME,GS,,,,,,,,,,,,,,,,,,,,,,,,,,,,,,,,,,,,,,,,,,,,,,,,,,,,,,,,,,,,,,,,,,,,,,,,,,,,,,,return,8.85307, keyboard strokes,0,13,13,49,1,,
,,,,,,,,,,,,,,5c537b8b87d9ef0001f195d4,2021-03-24_18h54.06.927,CombinedMST_OA,2020.2.10,Win32,60,,,,,,,,,,,,,,,,,,,SoundMST/Baby_F.wav,,,,SIMILAR,GS,,,,,,,,,,,,,,,,,,,,,,,,,,,,,,,,,,,,,,,,,,,,,,,,,,,,,,,,,,,,,,,,,,,,,,,,,,,,,,,return,7.142005, baby giggling,0,14,14,28,1,,
,,,,,,,,,,,,,,5c537b8b87d9ef0001f195d4,2021-03-24_18h54.06.927,CombinedMST_OA,2020.2.10,Win32,60,,,,,,,,,,,,,,,,,,,SoundMST/Snore_E.wav,,,,SIMILAR,GS,,,,,,,,,,,,,,,,,,,,,,,,,,,,,,,,,,,,,,,,,,,,,,,,,,,,,,,,,,,,,,,,,,,,,,,,,,,,,,,return,11.96299,low snoring,0,15,15,10,1,,
,,,,,,,,,,,,,,5c537b8b87d9ef0001f195d4,2021-03-24_18h54.06.927,CombinedMST_OA,2020.2.10,Win32,60,,,,,,,,,,,,,,,,,,,SoundMST/Horse.wav,,,,SAME,GS,,,,,,,,,,,,,,,,,,,,,,,,,,,,,,,,,,,,,,,,,,,,,,,,,,,,,,,,,,,,,,,,,,,,,,,,,,,,,,,return,8.68315, horse neighing,0,16,16,82,1,,
,,,,,,,,,,,,,,5c537b8b87d9ef0001f195d4,2021-03-24_18h54.06.927,CombinedMST_OA,2020.2.10,Win32,60,,,,,,,,,,,,,,,,,,,SoundMST/Bubbles_A.wav,,,,SIMILAR,GS,,,,,,,,,,,,,,,,,,,,,,,,,,,,,,,,,,,,,,,,,,,,,,,,,,,,,,,,,,,,,,,,,,,,,,,,,,,,,,,return,7.93366, water bubbling,0,17,17,45,1,,
,,,,,,,,,,,,,,5c537b8b87d9ef0001f195d4,2021-03-24_18h54.06.927,CombinedMST_OA,2020.2.10,Win32,60,,,,,,,,,,,,,,,,,,,SoundMST/Whistle_B.wav,,,,SIMILAR,GS,,,,,,,,,,,,,,,,,,,,,,,,,,,,,,,,,,,,,,,,,,,,,,,,,,,,,,,,,,,,,,,,,,,,,,,,,,,,,,,return,9.97435, whistle blow,0,18,18,35,1,,
,,,,,,,,,,,,,,5c537b8b87d9ef0001f195d4,2021-03-24_18h54.06.927,CombinedMST_OA,2020.2.10,Win32,60,,,,,,,,,,,,,,,,,,,SoundMST/Cup.wav,,,,SAME,GS,,,,,,,,,,,,,,,,,,,,,,,,,,,,,,,,,,,,,,,,,,,,,,,,,,,,,,,,,,,,,,,,,,,,,,,,,,,,,,,return,10.40216, metal tablet drop,0,19,19,68,1,,
,,,,,,,,,,,,,,5c537b8b87d9ef0001f195d4,2021-03-24_18h54.06.927,CombinedMST_OA,2020.2.10,Win32,60,,,,,,,,,,,,,,,,,,,SoundMST/Chime_B.wav,,,,SIMILAR,GS,,,,,,,,,,,,,,,,,,,,,,,,,,,,,,,,,,,,,,,,,,,,,,,,,,,,,,,,,,,,,,,,,,,,,,,,,,,,,,,return,7.533355, churchbells,0,20,20,26,1,,
,,,,,,,,,,,,,,5c537b8b87d9ef0001f195d4,2021-03-24_18h54.06.927,CombinedMST_OA,2020.2.10,Win32,60,,,,,,,,,,,,,,,,,,,SoundMST/Mosquito_B.wav,,,,SAME,GS,,,,,,,,,,,,,,,,,,,,,,,,,,,,,,,,,,,,,,,,,,,,,,,,,,,,,,,,,,,,,,,,,,,,,,,,,,,,,,,return,7.473935, mosquito buzz,0,21,21,53,1,,
,,,,,,,,,,,,,,5c537b8b87d9ef0001f195d4,2021-03-24_18h54.06.927,CombinedMST_OA,2020.2.10,Win32,60,,,,,,,,,,,,,,,,,,,SoundMST/Siren_E.wav,,,,SIMILAR,GS,,,,,,,,,,,,,,,,,,,,,,,,,,,,,,,,,,,,,,,,,,,,,,,,,,,,,,,,,,,,,,,,,,,,,,,,,,,,,,,return,14.138145, fire engine siren,0,22,22,38,1,,
,,,,,,,,,,,,,,5c537b8b87d9ef0001f195d4,2021-03-24_18h54.06.927,CombinedMST_OA,2020.2.10,Win32,60,,,,,,,,,,,,,,,,,,,SoundMST/Toilet_B.wav,,,,SAME,GS,,,,,,,,,,,,,,,,,,,,,,,,,,,,,,,,,,,,,,,,,,,,,,,,,,,,,,,,,,,,,,,,,,,,,,,,,,,,,,,return,7.086985, lavatory flush,0,23,23,51,1,,
,,,,,,,,,,,,,,5c537b8b87d9ef0001f195d4,2021-03-24_18h54.06.927,CombinedMST_OA,2020.2.10,Win32,60,,,,,,,,,,,,,,,,,,,SoundMST/Slurp.wav,,,,SAME,GS,,,,,,,,,,,,,,,,,,,,,,,,,,,,,,,,,,,,,,,,,,,,,,,,,,,,,,,,,,,,,,,,,,,,,,,,,,,,,,,return,10.59058, slurping a drink,0,24,24,66,1,,
,,,,,,,,,,,,,,5c537b8b87d9ef0001f195d4,2021-03-24_18h54.06.927,CombinedMST_OA,2020.2.10,Win32,60,,,,,,,,,,,,,,,,,,,SoundMST/Heartbeat.wav,,,,SAME,GS,,,,,,,,,,,,,,,,,,,,,,,,,,,,,,,,,,,,,,,,,,,,,,,,,,,,,,,,,,,,,,,,,,,,,,,,,,,,,,,return,5.7169, heartbeat,0,25,25,56,1,,
,,,,,,,,,,,,,,5c537b8b87d9ef0001f195d4,2021-03-24_18h54.06.927,CombinedMST_OA,2020.2.10,Win32,60,,,,,,,,,,,,,,,,,,,SoundMST/HairDryer_A.wav,,,,SAME,GS,,,,,,,,,,,,,,,,,,,,,,,,,,,,,,,,,,,,,,,,,,,,,,,,,,,,,,,,,,,,,,,,,,,,,,,,,,,,,,,return,8.56875, drill whirring,0,26,26,74,1,,
,,,,,,,,,,,,,,5c537b8b87d9ef0001f195d4,2021-03-24_18h54.06.927,CombinedMST_OA,2020.2.10,Win32,60,,,,,,,,,,,,,,,,,,,SoundMST/Bowlingpins.wav,,,,SAME,GS,,,,,,,,,,,,,,,,,,,,,,,,,,,,,,,,,,,,,,,,,,,,,,,,,,,,,,,,,,,,,,,,,,,,,,,,,,,,,,,return,9.966505, bowling pins falling,0,27,27,72,1,,
,,,,,,,,,,,,,,5c537b8b87d9ef0001f195d4,2021-03-24_18h54.06.927,CombinedMST_OA,2020.2.10,Win32,60,,,,,,,,,,,,,,,,,,,SoundMST/Chomp_C.wav,,,,SIMILAR,GS,,,,,,,,,,,,,,,,,,,,,,,,,,,,,,,,,,,,,,,,,,,,,,,,,,,,,,,,,,,,,,,,,,,,,,,,,,,,,,,return,19.55063, eating something crunchy,0,28,28,12,1,,
,,,,,,,,,,,,,,5c537b8b87d9ef0001f195d4,2021-03-24_18h54.06.927,CombinedMST_OA,2020.2.10,Win32,60,,,,,,,,,,,,,,,,,,,SoundMST/Elephant_C.wav,,,,SIMILAR,GS,,,,,,,,,,,,,,,,,,,,,,,,,,,,,,,,,,,,,,,,,,,,,,,,,,,,,,,,,,,,,,,,,,,,,,,,,,,,,,,return,9.65025, elephant trumpet,0,29,29,24,1,,
,,,,,,,,,,,,,,5c537b8b87d9ef0001f195d4,2021-03-24_18h54.06.927,CombinedMST_OA,2020.2.10,Win32,60,,,,,,,,,,,,,,,,,,,SoundMST/Footsteps_F.wav,,,,SIMILAR,GS,,,,,,,,,,,,,,,,,,,,,,,,,,,,,,,,,,,,,,,,,,,,,,,,,,,,,,,,,,,,,,,,,,,,,,,,,,,,,,,return,9.101125, footsteps on wooden floor,0,30,30,16,1,,
,,,,,,,,,,,,,,5c537b8b87d9ef0001f195d4,2021-03-24_18h54.06.927,CombinedMST_OA,2020.2.10,Win32,60,,,,,,,,,,,,,,,,,,,SoundMST/Helicopter_A.wav,,,,SAME,GS,,,,,,,,,,,,,,,,,,,,,,,,,,,,,,,,,,,,,,,,,,,,,,,,,,,,,,,,,,,,,,,,,,,,,,,,,,,,,,,return,10.1601, helicopter blades beating,0,31,31,79,1,,
,,,,,,,,,,,,,,5c537b8b87d9ef0001f195d4,2021-03-24_18h54.06.927,CombinedMST_OA,2020.2.10,Win32,60,,,,,,,,,,,,,,,,,,,SoundMST/Phone_E.wav,,,,SIMILAR,GS,,,,,,,,,,,,,,,,,,,,,,,,,,,,,,,,,,,,,,,,,,,,,,,,,,,,,,,,,,,,,,,,,,,,,,,,,,,,,,,return,8.04416, telephone ringing,0,32,32,13,1,,
,,,,,,,,,,,,,,5c537b8b87d9ef0001f195d4,2021-03-24_18h54.06.927,CombinedMST_OA,2020.2.10,Win32,60,,,,,,,,,,,,,,,,,,,SoundMST/Duck_D.wav,,,,SIMILAR,GS,,,,,,,,,,,,,,,,,,,,,,,,,,,,,,,,,,,,,,,,,,,,,,,,,,,,,,,,,,,,,,,,,,,,,,,,,,,,,,,return,7.685645, duck quacking,0,33,33,8,1,,
,,,,,,,,,,,,,,5c537b8b87d9ef0001f195d4,2021-03-24_18h54.06.927,CombinedMST_OA,2020.2.10,Win32,60,,,,,,,,,,,,,,,,,,,SoundMST/Pour_B.wav,,,,SIMILAR,GS,,,,,,,,,,,,,,,,,,,,,,,,,,,,,,,,,,,,,,,,,,,,,,,,,,,,,,,,,,,,,,,,,,,,,,,,,,,,,,,return,9.27718, fizzy drink pour,0,34,34,25,1,,
,,,,,,,,,,,,,,5c537b8b87d9ef0001f195d4,2021-03-24_18h54.06.927,CombinedMST_OA,2020.2.10,Win32,60,,,,,,,,,,,,,,,,,,,SoundMST/Dog_F.wav,,,,SIMILAR,GS,,,,,,,,,,,,,,,,,,,,,,,,,,,,,,,,,,,,,,,,,,,,,,,,,,,,,,,,,,,,,,,,,,,,,,,,,,,,,,,return,4.860845, dog barking,0,35,35,17,1,,
,,,,,,,,,,,,,,5c537b8b87d9ef0001f195d4,2021-03-24_18h54.06.927,CombinedMST_OA,2020.2.10,Win32,60,,,,,,,,,,,,,,,,,,,SoundMST/Cuckoo_A.wav,,,,SAME,GS,,,,,,,,,,,,,,,,,,,,,,,,,,,,,,,,,,,,,,,,,,,,,,,,,,,,,,,,,,,,,,,,,,,,,,,,,,,,,,,return,7.70052, cuckoo clock alarm,0,36,36,75,1,,
,,,,,,,,,,,,,,5c537b8b87d9ef0001f195d4,2021-03-24_18h54.06.927,CombinedMST_OA,2020.2.10,Win32,60,,,,,,,,,,,,,,,,,,,SoundMST/Chomp_A.wav,,,,SIMILAR,GS,,,,,,,,,,,,,,,,,,,,,,,,,,,,,,,,,,,,,,,,,,,,,,,,,,,,,,,,,,,,,,,,,,,,,,,,,,,,,,,return,18.601055, eating crunchy food,0,37,37,36,1,,
,,,,,,,,,,,,,,5c537b8b87d9ef0001f195d4,2021-03-24_18h54.06.927,CombinedMST_OA,2020.2.10,Win32,60,,,,,,,,,,,,,,,,,,,SoundMST/DialTone.wav,,,,SAME,GS,,,,,,,,,,,,,,,,,,,,,,,,,,,,,,,,,,,,,,,,,,,,,,,,,,,,,,,,,,,,,,,,,,,,,,,,,,,,,,,return,10.336115, engaged tone,0,38,38,54,1,,
,,,,,,,,,,,,,,5c537b8b87d9ef0001f195d4,2021-03-24_18h54.06.927,CombinedMST_OA,2020.2.10,Win32,60,,,,,,,,,,,,,,,,,,,SoundMST/Goat_C.wav,,,,SIMILAR,GS,,,,,,,,,,,,,,,,,,,,,,,,,,,,,,,,,,,,,,,,,,,,,,,,,,,,,,,,,,,,,,,,,,,,,,,,,,,,,,,return,8.342515, sheep baa,0,39,39,20,1,,
,,,,,,,,,,,,,,5c537b8b87d9ef0001f195d4,2021-03-24_18h54.06.927,CombinedMST_OA,2020.2.10,Win32,60,,,,,,,,,,,,,,,,,,,SoundMST/Growl_G.wav,,,,SIMILAR,GS,,,,,,,,,,,,,,,,,,,,,,,,,,,,,,,,,,,,,,,,,,,,,,,,,,,,,,,,,,,,,,,,,,,,,,,,,,,,,,,return,8.383535, tiger growling,0,40,40,43,1,,
,,,,,,,,,,,,,,5c537b8b87d9ef0001f195d4,2021-03-24_18h54.06.927,CombinedMST_OA,2020.2.10,Win32,60,,,,,,,,,,,,,,,,,,,SoundMST/Coin_E.wav,,,,SIMILAR,GS,,,,,,,,,,,,,,,,,,,,,,,,,,,,,,,,,,,,,,,,,,,,,,,,,,,,,,,,,,,,,,,,,,,,,,,,,,,,,,,return,16.974835, sweeping something off table,0,41,41,18,1,,
,,,,,,,,,,,,,,5c537b8b87d9ef0001f195d4,2021-03-24_18h54.06.927,CombinedMST_OA,2020.2.10,Win32,60,,,,,,,,,,,,,,,,,,,SoundMST/Bird_A.wav,,,,SIMILAR,GS,,,,,,,,,,,,,,,,,,,,,,,,,,,,,,,,,,,,,,,,,,,,,,,,,,,,,,,,,,,,,,,,,,,,,,,,,,,,,,,return,8.682965, bird chirping,0,42,42,7,1,,
,,,,,,,,,,,,,,5c537b8b87d9ef0001f195d4,2021-03-24_18h54.06.927,CombinedMST_OA,2020.2.10,Win32,60,,,,,,,,,,,,,,,,,,,SoundMST/Dog_H.wav,,,,SIMILAR,GS,,,,,,,,,,,,,,,,,,,,,,,,,,,,,,,,,,,,,,,,,,,,,,,,,,,,,,,,,,,,,,,,,,,,,,,,,,,,,,,return,7.362515, dog angrily barking,0,43,43,41,1,,
,,,,,,,,,,,,,,5c537b8b87d9ef0001f195d4,2021-03-24_18h54.06.927,CombinedMST_OA,2020.2.10,Win32,60,,,,,,,,,,,,,,,,,,,SoundMST/Crow_B.wav,,,,SIMILAR,GS,,,,,,,,,,,,,,,,,,,,,,,,,,,,,,,,,,,,,,,,,,,,,,,,,,,,,,,,,,,,,,,,,,,,,,,,,,,,,,,return,8.959165, crow cawing,0,44,44,39,1,,
,,,,,,,,,,,,,,5c537b8b87d9ef0001f195d4,2021-03-24_18h54.06.927,CombinedMST_OA,2020.2.10,Win32,60,,,,,,,,,,,,,,,,,,,SoundMST/Airhorn.wav,,,,SAME,GS,,,,,,,,,,,,,,,,,,,,,,,,,,,,,,,,,,,,,,,,,,,,,,,,,,,,,,,,,,,,,,,,,,,,,,,,,,,,,,,return,6.683865, vevezula,0,45,45,70,1,,
,,,,,,,,,,,,,,5c537b8b87d9ef0001f195d4,2021-03-24_18h54.06.927,CombinedMST_OA,2020.2.10,Win32,60,,,,,,,,,,,,,,,,,,,SoundMST/Clap_B.wav,,,,SIMILAR,GS,,,,,,,,,,,,,,,,,,,,,,,,,,,,,,,,,,,,,,,,,,,,,,,,,,,,,,,,,,,,,,,,,,,,,,,,,,,,,,,return,7.228105, applause,0,46,46,47,1,,
,,,,,,,,,,,,,,5c537b8b87d9ef0001f195d4,2021-03-24_18h54.06.927,CombinedMST_OA,2020.2.10,Win32,60,,,,,,,,,,,,,,,,,,,SoundMST/Crow_A.wav,,,,SIMILAR,GS,,,,,,,,,,,,,,,,,,,,,,,,,,,,,,,,,,,,,,,,,,,,,,,,,,,,,,,,,,,,,,,,,,,,,,,,,,,,,,,return,14.0005, crow cawing rapidly,0,47,47,15,1,,
,,,,,,,,,,,,,,5c537b8b87d9ef0001f195d4,2021-03-24_18h54.06.927,CombinedMST_OA,2020.2.10,Win32,60,,,,,,,,,,,,,,,,,,,SoundMST/Goat_B.wav,,,,SIMILAR,GS,,,,,,,,,,,,,,,,,,,,,,,,,,,,,,,,,,,,,,,,,,,,,,,,,,,,,,,,,,,,,,,,,,,,,,,,,,,,,,,return,10.55029, sheep baaing long,0,48,48,44,1,,
,,,,,,,,,,,,,,5c537b8b87d9ef0001f195d4,2021-03-24_18h54.06.927,CombinedMST_OA,2020.2.10,Win32,60,,,,,,,,,,,,,,,,,,,SoundMST/Droplet_B.wav,,,,SAME,GS,,,,,,,,,,,,,,,,,,,,,,,,,,,,,,,,,,,,,,,,,,,,,,,,,,,,,,,,,,,,,,,,,,,,,,,,,,,,,,,return,10.239235, water droplet impact,0,49,49,85,1,,
,,,,,,,,,,,,,,5c537b8b87d9ef0001f195d4,2021-03-24_18h54.06.927,CombinedMST_OA,2020.2.10,Win32,60,,,,,,,,,,,,,,,,,,,SoundMST/Guitar_B.wav,,,,SAME,GS,,,,,,,,,,,,,,,,,,,,,,,,,,,,,,,,,,,,,,,,,,,,,,,,,,,,,,,,,,,,,,,,,,,,,,,,,,,,,,,return,8.62402, guitar chord,0,50,50,59,1,,
,,,,,,,,,,,,,,5c537b8b87d9ef0001f195d4,2021-03-24_18h54.06.927,CombinedMST_OA,2020.2.10,Win32,60,,,,,,,,,,,,,,,,,,,SoundMST/Footsteps_C.wav,,,,SIMILAR,GS,,,,,,,,,,,,,,,,,,,,,,,,,,,,,,,,,,,,,,,,,,,,,,,,,,,,,,,,,,,,,,,,,,,,,,,,,,,,,,,return,8.170315, heavy footsteps,0,51,51,40,1,,
,,,,,,,,,,,,,,5c537b8b87d9ef0001f195d4,2021-03-24_18h54.06.927,CombinedMST_OA,2020.2.10,Win32,60,,,,,,,,,,,,,,,,,,,SoundMST/Chime_A.wav,,,,SIMILAR,GS,,,,,,,,,,,,,,,,,,,,,,,,,,,,,,,,,,,,,,,,,,,,,,,,,,,,,,,,,,,,,,,,,,,,,,,,,,,,,,,return,11.40039, two church bell peals,0,52,52,2,1,,
,,,,,,,,,,,,,,5c537b8b87d9ef0001f195d4,2021-03-24_18h54.06.927,CombinedMST_OA,2020.2.10,Win32,60,,,,,,,,,,,,,,,,,,,SoundMST/Printer.wav,,,,SAME,GS,,,,,,,,,,,,,,,,,,,,,,,,,,,,,,,,,,,,,,,,,,,,,,,,,,,,,,,,,,,,,,,,,,,,,,,,,,,,,,,return,12.73411, office machine whirr,0,53,53,83,1,,
,,,,,,,,,,,,,,5c537b8b87d9ef0001f195d4,2021-03-24_18h54.06.927,CombinedMST_OA,2020.2.10,Win32,60,,,,,,,,,,,,,,,,,,,SoundMST/Coin_D.wav,,,,SIMILAR,GS,,,,,,,,,,,,,,,,,,,,,,,,,,,,,,,,,,,,,,,,,,,,,,,,,,,,,,,,,,,,,,,,,,,,,,,,,,,,,,,return,20.70366, pills swept off surface loudly,0,54,54,42,1,,
,,,,,,,,,,,,,,5c537b8b87d9ef0001f195d4,2021-03-24_18h54.06.927,CombinedMST_OA,2020.2.10,Win32,60,,,,,,,,,,,,,,,,,,,SoundMST/Clap_C.wav,,,,SIMILAR,GS,,,,,,,,,,,,,,,,,,,,,,,,,,,,,,,,,,,,,,,,,,,,,,,,,,,,,,,,,,,,,,,,,,,,,,,,,,,,,,,return,9.483945, people clapping loudly,0,55,55,23,1,,
,,,,,,,,,,,,,,5c537b8b87d9ef0001f195d4,2021-03-24_18h54.06.927,CombinedMST_OA,2020.2.10,Win32,60,,,,,,,,,,,,,,,,,,,SoundMST/Cello.wav,,,,SAME,GS,,,,,,,,,,,,,,,,,,,,,,,,,,,,,,,,,,,,,,,,,,,,,,,,,,,,,,,,,,,,,,,,,,,,,,,,,,,,,,,return,13.933175, creepy cello music,0,56,56,61,1,,
,,,,,,,,,,,,,,5c537b8b87d9ef0001f195d4,2021-03-24_18h54.06.927,CombinedMST_OA,2020.2.10,Win32,60,,,,,,,,,,,,,,,,,,,SoundMST/Laugh_A.wav,,,,SIMILAR,GS,,,,,,,,,,,,,,,,,,,,,,,,,,,,,,,,,,,,,,,,,,,,,,,,,,,,,,,,,,,,,,,,,,,,,,,,,,,,,,,return,11.30072, people laughing highpitched,0,57,57,33,1,,
,,,,,,,,,,,,,,5c537b8b87d9ef0001f195d4,2021-03-24_18h54.06.927,CombinedMST_OA,2020.2.10,Win32,60,,,,,,,,,,,,,,,,,,,SoundMST/CarStart_F.wav,,,,SIMILAR,GS,,,,,,,,,,,,,,,,,,,,,,,,,,,,,,,,,,,,,,,,,,,,,,,,,,,,,,,,,,,,,,,,,,,,,,,,,,,,,,,return,11.61729, car engine start short,0,58,58,22,1,,
,,,,,,,,,,,,,,5c537b8b87d9ef0001f195d4,2021-03-24_18h54.06.927,CombinedMST_OA,2020.2.10,Win32,60,,,,,,,,,,,,,,,,,,,SoundMST/Sneeze_B.wav,,,,SAME,GS,,,,,,,,,,,,,,,,,,,,,,,,,,,,,,,,,,,,,,,,,,,,,,,,,,,,,,,,,,,,,,,,,,,,,,,,,,,,,,,return,5.3007, sneeze,0,59,59,64,1,,
,,,,,,,,,,,,,,5c537b8b87d9ef0001f195d4,2021-03-24_18h54.06.927,CombinedMST_OA,2020.2.10,Win32,60,,,,,,,,,,,,,,,,,,,SoundMST/Donkey.wav,,,,SAME,GS,,,,,,,,,,,,,,,,,,,,,,,,,,,,,,,,,,,,,,,,,,,,,,,,,,,,,,,,,,,,,,,,,,,,,,,,,,,,,,,return,6.67831, donkey braying,0,60,60,87,1,,
,,,,,,,,,,,,,,5c537b8b87d9ef0001f195d4,2021-03-24_18h54.06.927,CombinedMST_OA,2020.2.10,Win32,60,,,,,,,,,,,,,,,,,,,SoundMST/Writing_C.wav,,,,SIMILAR,GS,,,,,,,,,,,,,,,,,,,,,,,,,,,,,,,,,,,,,,,,,,,,,,,,,,,,,,,,,,,,,,,,,,,,,,,,,,,,,,,return,7.44596, chalk on chalkboard,0,61,61,3,1,,
,,,,,,,,,,,,,,5c537b8b87d9ef0001f195d4,2021-03-24_18h54.06.927,CombinedMST_OA,2020.2.10,Win32,60,,,,,,,,,,,,,,,,,,,SoundMST/Faucet_C.wav,,,,SIMILAR,GS,,,,,,,,,,,,,,,,,,,,,,,,,,,,,,,,,,,,,,,,,,,,,,,,,,,,,,,,,,,,,,,,,,,,,,,,,,,,,,,return,8.54314, tap running in sink,0,62,62,5,1,,
,,,,,,,,,,,,,,5c537b8b87d9ef0001f195d4,2021-03-24_18h54.06.927,CombinedMST_OA,2020.2.10,Win32,60,,,,,,,,,,,,,,,,,,,SoundMST/Elephant_A.wav,,,,SIMILAR,GS,,,,,,,,,,,,,,,,,,,,,,,,,,,,,,,,,,,,,,,,,,,,,,,,,,,,,,,,,,,,,,,,,,,,,,,,,,,,,,,return,9.233795, elephant calling twice,0,63,63,0,1,,
,,,,,,,,,,,,,,5c537b8b87d9ef0001f195d4,2021-03-24_18h54.06.927,CombinedMST_OA,2020.2.10,Win32,60,,,,,,,,,,,,,,,,,,,SoundMST/Cough_D.wav,,,,SIMILAR,GS,,,,,,,,,,,,,,,,,,,,,,,,,,,,,,,,,,,,,,,,,,,,,,,,,,,,,,,,,,,,,,,,,,,,,,,,,,,,,,,return,7.216785, person coughing,0,64,64,30,1,,
,,,,,,,,,,,,,,5c537b8b87d9ef0001f195d4,2021-03-24_18h54.06.927,CombinedMST_OA,2020.2.10,Win32,60,,,,,,,,,,,,,,,,,,,SoundMST/Baby_E.wav,,,,SIMILAR,GS,,,,,,,,,,,,,,,,,,,,,,,,,,,,,,,,,,,,,,,,,,,,,,,,,,,,,,,,,,,,,,,,,,,,,,,,,,,,,,,return,12.667005, baby giggling ,0,65,65,4,1,,
,,,,,,,,,,,,,,5c537b8b87d9ef0001f195d4,2021-03-24_18h54.06.927,CombinedMST_OA,2020.2.10,Win32,60,,,,,,,,,,,,,,,,,,,SoundMST/Fireworks.wav,,,,SAME,GS,,,,,,,,,,,,,,,,,,,,,,,,,,,,,,,,,,,,,,,,,,,,,,,,,,,,,,,,,,,,,,,,,,,,,,,,,,,,,,,return,5.75066, fireworks,0,66,66,78,1,,
,,,,,,,,,,,,,,5c537b8b87d9ef0001f195d4,2021-03-24_18h54.06.927,CombinedMST_OA,2020.2.10,Win32,60,,,,,,,,,,,,,,,,,,,SoundMST/Cough_F.wav,,,,SIMILAR,GS,,,,,,,,,,,,,,,,,,,,,,,,,,,,,,,,,,,,,,,,,,,,,,,,,,,,,,,,,,,,,,,,,,,,,,,,,,,,,,,return,8.207335, person coughing loudly,0,67,67,6,1,,
,,,,,,,,,,,,,,5c537b8b87d9ef0001f195d4,2021-03-24_18h54.06.927,CombinedMST_OA,2020.2.10,Win32,60,,,,,,,,,,,,,,,,,,,SoundMST/Howl.wav,,,,SAME,GS,,,,,,,,,,,,,,,,,,,,,,,,,,,,,,,,,,,,,,,,,,,,,,,,,,,,,,,,,,,,,,,,,,,,,,,,,,,,,,,return,8.10051, wolf howling,0,68,68,80,1,,
,,,,,,,,,,,,,,5c537b8b87d9ef0001f195d4,2021-03-24_18h54.06.927,CombinedMST_OA,2020.2.10,Win32,60,,,,,,,,,,,,,,,,,,,SoundMST/Bagpipe.wav,,,,SAME,GS,,,,,,,,,,,,,,,,,,,,,,,,,,,,,,,,,,,,,,,,,,,,,,,,,,,,,,,,,,,,,,,,,,,,,,,,,,,,,,,return,5.56917, bagpipes,0,69,69,69,1,,
,,,,,,,,,,,,,,5c537b8b87d9ef0001f195d4,2021-03-24_18h54.06.927,CombinedMST_OA,2020.2.10,Win32,60,,,,,,,,,,,,,,,,,,,SoundMST/Faucet_A.wav,,,,SIMILAR,GS,,,,,,,,,,,,,,,,,,,,,,,,,,,,,,,,,,,,,,,,,,,,,,,,,,,,,,,,,,,,,,,,,,,,,,,,,,,,,,,return,11.317575, tap running heavy flow,0,70,70,29,1,,
,,,,,,,,,,,,,,5c537b8b87d9ef0001f195d4,2021-03-24_18h54.06.927,CombinedMST_OA,2020.2.10,Win32,60,,,,,,,,,,,,,,,,,,,SoundMST/Cat_A.wav,,,,SAME,GS,,,,,,,,,,,,,,,,,,,,,,,,,,,,,,,,,,,,,,,,,,,,,,,,,,,,,,,,,,,,,,,,,,,,,,,,,,,,,,,return,5.73379, cat meow,0,71,71,65,1,,
,,,,,,,,,,,,,,5c537b8b87d9ef0001f195d4,2021-03-24_18h54.06.927,CombinedMST_OA,2020.2.10,Win32,60,,,,,,,,,,,,,,,,,,,SoundMST/Airplane_B.wav,,,,SAME,GS,,,,,,,,,,,,,,,,,,,,,,,,,,,,,,,,,,,,,,,,,,,,,,,,,,,,,,,,,,,,,,,,,,,,,,,,,,,,,,,return,14.0477, airplane overhead,0,72,72,62,1,,
,,,,,,,,,,,,,,5c537b8b87d9ef0001f195d4,2021-03-24_18h54.06.927,CombinedMST_OA,2020.2.10,Win32,60,,,,,,,,,,,,,,,,,,,SoundMST/Hammer_A.wav,,,,SAME,GS,,,,,,,,,,,,,,,,,,,,,,,,,,,,,,,,,,,,,,,,,,,,,,,,,,,,,,,,,,,,,,,,,,,,,,,,,,,,,,,return,9.75023, hammering,0,73,73,76,1,,
,,,,,,,,,,,,,,5c537b8b87d9ef0001f195d4,2021-03-24_18h54.06.927,CombinedMST_OA,2020.2.10,Win32,60,,,,,,,,,,,,,,,,,,,SoundMST/Sleighbells_B.wav,,,,SAME,GS,,,,,,,,,,,,,,,,,,,,,,,,,,,,,,,,,,,,,,,,,,,,,,,,,,,,,,,,,,,,,,,,,,,,,,,,,,,,,,,return,7.92104, cicadas at night,0,74,74,50,1,,
,,,,,,,,,,,,,,5c537b8b87d9ef0001f195d4,2021-03-24_18h54.06.927,CombinedMST_OA,2020.2.10,Win32,60,,,,,,,,,,,,,,,,,,,SoundMST/PaperRip.wav,,,,SAME,GS,,,,,,,,,,,,,,,,,,,,,,,,,,,,,,,,,,,,,,,,,,,,,,,,,,,,,,,,,,,,,,,,,,,,,,,,,,,,,,,return,5.81671, paper tearing,0,75,75,81,1,,
,,,,,,,,,,,,,,5c537b8b87d9ef0001f195d4,2021-03-24_18h54.06.927,CombinedMST_OA,2020.2.10,Win32,60,,,,,,,,,,,,,,,,,,,SoundMST/Steam.wav,,,,SAME,GS,,,,,,,,,,,,,,,,,,,,,,,,,,,,,,,,,,,,,,,,,,,,,,,,,,,,,,,,,,,,,,,,,,,,,,,,,,,,,,,return,15.800075, steam locomotive horn,0,76,76,86,1,,
,,,,,,,,,,,,,,5c537b8b87d9ef0001f195d4,2021-03-24_18h54.06.927,CombinedMST_OA,2020.2.10,Win32,60,,,,,,,,,,,,,,,,,,,SoundMST/Cow.wav,,,,SAME,GS,,,,,,,,,,,,,,,,,,,,,,,,,,,,,,,,,,,,,,,,,,,,,,,,,,,,,,,,,,,,,,,,,,,,,,,,,,,,,,,return,5.033545, cow mooing,0,77,77,71,1,,
,,,,,,,,,,,,,,5c537b8b87d9ef0001f195d4,2021-03-24_18h54.06.927,CombinedMST_OA,2020.2.10,Win32,60,,,,,,,,,,,,,,,,,,,SoundMST/IceDrop.wav,,,,SAME,GS,,,,,,,,,,,,,,,,,,,,,,,,,,,,,,,,,,,,,,,,,,,,,,,,,,,,,,,,,,,,,,,,,,,,,,,,,,,,,,,return,12.1004, items dropped into glass container,0,78,78,57,1,,
,,,,,,,,,,,,,,5c537b8b87d9ef0001f195d4,2021-03-24_18h54.06.927,CombinedMST_OA,2020.2.10,Win32,60,,,,,,,,,,,,,,,,,,,SoundMST/Bubbles_B.wav,,,,SIMILAR,GS,,,,,,,,,,,,,,,,,,,,,,,,,,,,,,,,,,,,,,,,,,,,,,,,,,,,,,,,,,,,,,,,,,,,,,,,,,,,,,,return,6.10034, water bubbling,0,79,79,21,1,,
,,,,,,,,,,,,,,5c537b8b87d9ef0001f195d4,2021-03-24_18h54.06.927,CombinedMST_OA,2020.2.10,Win32,60,,,,,,,,,,,,,,,,,,,SoundMST/Buzz.wav,,,,SAME,GS,,,,,,,,,,,,,,,,,,,,,,,,,,,,,,,,,,,,,,,,,,,,,,,,,,,,,,,,,,,,,,,,,,,,,,,,,,,,,,,return,9.03939, mobile phone vibrating,0,80,80,52,1,,
,,,,,,,,,,,,,,5c537b8b87d9ef0001f195d4,2021-03-24_18h54.06.927,CombinedMST_OA,2020.2.10,Win32,60,,,,,,,,,,,,,,,,,,,SoundMST/Puff_A.wav,,,,SAME,GS,,,,,,,,,,,,,,,,,,,,,,,,,,,,,,,,,,,,,,,,,,,,,,,,,,,,,,,,,,,,,,,,,,,,,,,,,,,,,,,return,14.94323, toy noisemaker,0,81,81,58,1,,
,,,,,,,,,,,,,,5c537b8b87d9ef0001f195d4,2021-03-24_18h54.06.927,CombinedMST_OA,2020.2.10,Win32,60,,,,,,,,,,,,,,,,,,,SoundMST/Chicken_A.wav,,,,SAME,GS,,,,,,,,,,,,,,,,,,,,,,,,,,,,,,,,,,,,,,,,,,,,,,,,,,,,,,,,,,,,,,,,,,,,,,,,,,,,,,,return,8.05237, chicken clucking,0,82,82,60,1,,
,,,,,,,,,,,,,,5c537b8b87d9ef0001f195d4,2021-03-24_18h54.06.927,CombinedMST_OA,2020.2.10,Win32,60,,,,,,,,,,,,,,,,,,,SoundMST/Pour_C.wav,,,,SIMILAR,GS,,,,,,,,,,,,,,,,,,,,,,,,,,,,,,,,,,,,,,,,,,,,,,,,,,,,,,,,,,,,,,,,,,,,,,,,,,,,,,,return,8.183825, fizzy drink pour,0,83,83,1,1,,
,,,,,,,,,,,,,,5c537b8b87d9ef0001f195d4,2021-03-24_18h54.06.927,CombinedMST_OA,2020.2.10,Win32,60,,,,,,,,,,,,,,,,,,,SoundMST/Bullfrog.wav,,,,SAME,GS,,,,,,,,,,,,,,,,,,,,,,,,,,,,,,,,,,,,,,,,,,,,,,,,,,,,,,,,,,,,,,,,,,,,,,,,,,,,,,,return,7.54988, frog croaking,0,84,84,73,1,,
,,,,,,,,,,,,,,5c537b8b87d9ef0001f195d4,2021-03-24_18h54.06.927,CombinedMST_OA,2020.2.10,Win32,60,,,,,,,,,,,,,,,,,,,SoundMST/Wind_B.wav,,,,SAME,GS,,,,,,,,,,,,,,,,,,,,,,,,,,,,,,,,,,,,,,,,,,,,,,,,,,,,,,,,,,,,,,,,,,,,,,,,,,,,,,,return,6.57627, wind whistling,0,85,85,55,1,,
,,,,,,,,,,,,,,5c537b8b87d9ef0001f195d4,2021-03-24_18h54.06.927,CombinedMST_OA,2020.2.10,Win32,60,,,,,,,,,,,,,,,,,,,SoundMST/Siren_A.wav,,,,SIMILAR,GS,,,,,,,,,,,,,,,,,,,,,,,,,,,,,,,,,,,,,,,,,,,,,,,,,,,,,,,,,,,,,,,,,,,,,,,,,,,,,,,return,9.770005, generic siren,0,86,86,14,1,,
,,,,,,,,,,,,,,5c537b8b87d9ef0001f195d4,2021-03-24_18h54.06.927,CombinedMST_OA,2020.2.10,Win32,60,,,,,,,,,,,,,,,,,,,SoundMST/Thunder_A.wav,,,,SAME,GS,,,,,,,,,,,,,,,,,,,,,,,,,,,,,,,,,,,,,,,,,,,,,,,,,,,,,,,,,,,,,,,,,,,,,,,,,,,,,,,return,7.967255, peal of thunder,0,87,87,48,1,,
,,,,,,,,,,,,,,5c537b8b87d9ef0001f195d4,2021-03-24_18h54.06.927,CombinedMST_OA,2020.2.10,Win32,60,,,,,,,,,,,,,,,,,,,,,,,,,,,,,,,,,,,,,,,,,,,,,,,,,,,,,,,,,,,,,,,,,,,,,,,,,,,,,,,,,,,,,,,,,,,,,,,,,,,,,,,,,,,,,,,space,60.635455
