VolumeContinueKey.keys,VolumeContinueKey.rt,HeadphoneContinueKey.keys,HeadphoneContinueKey.rt,CheckResp.keys,CheckResp.corr,CheckResp.rt,trials_3.thisRepN,trials_3.thisTrialN,trials_3.thisN,trials_3.thisIndex,trials_3.ran,File,Correct,participant,date,expName,psychopyVersion,OS,frameRate,Welcome0ContKey.keys,Welcome0ContKey.rt,key_resp.keys,key_resp.rt,WelcomeSound2ContKey.keys,WelcomeSound2ContKey.rt,WelcomeContinueKey2.keys,WelcomeContinueKey2.rt,PracticeSoundKey.keys,PracticeSoundKey.corr,PracticeSoundKey.rt,SoundPracticeLoop.thisRepN,SoundPracticeLoop.thisTrialN,SoundPracticeLoop.thisN,SoundPracticeLoop.thisIndex,SoundPracticeLoop.ran,SoundFile,SoundMST_File,GS_File,SoundCorrect,Correct2,SoundType,,Trial,MSTSoundStrtKey.keys,MSTSoundStrtKey.rt,MSTSoundKey.keys,MSTSoundKey.corr,MSTSoundKey.rt,MSTSoundLoop.thisRepN,MSTSoundLoop.thisTrialN,MSTSoundLoop.thisN,MSTSoundLoop.thisIndex,MSTSoundLoop.ran,AttnCheck2Keys.keys,AttnCheck2Keys.rt,AttnCheck2Resp.text,SoundTask.thisRepN,SoundTask.thisTrialN,SoundTask.thisN,SoundTask.thisIndex,SoundTask.ran,Counterbalance.thisRepN,Counterbalance.thisTrialN,Counterbalance.thisN,Counterbalance.thisIndex,Counterbalance.ran,WordOrder,SoundOrder,ContinueResp.keys,ContinueResp.rt,Wel2ContinueKey.keys,Wel2ContinueKey.rt,Practice_resp.keys,Practice_resp.corr,Practice_resp.rt,PracticeTrials.thisRepN,PracticeTrials.thisTrialN,PracticeTrials.thisN,PracticeTrials.thisIndex,PracticeTrials.ran,Type,StartTast.keys,StartTast.rt,MST_resp.keys,MST_resp.corr,MST_resp.rt,trials.thisRepN,trials.thisTrialN,trials.thisN,trials.thisIndex,trials.ran,WordCorrect,Correct_type,WordType,Condition,Attn1ContKey.keys,Attn1ContKey.rt,AttnCheckResp.text,SyllblCheckContKey.keys,SyllblCheckContKey.rt,SyllblCheckResp.keys,SyllblCheckResp.corr,SyllblCheckResp.rt,trials_2.thisRepN,trials_2.thisTrialN,trials_2.thisN,trials_2.thisIndex,trials_2.ran,Target,Word1,Word2,Word3,WordTask.thisRepN,WordTask.thisTrialN,WordTask.thisN,WordTask.thisIndex,WordTask.ran,key_resp_4.keys,key_resp_4.rt,GuessSoundIntro2Cont.keys,GuessSoundIntro2Cont.rt,GSSubmit.keys,GSSubmit.rt,GSResponse.text,GuessSoundLoop.thisRepN,GuessSoundLoop.thisTrialN,GuessSoundLoop.thisN,GuessSoundLoop.thisIndex,GuessSoundLoop.ran,ExitKey.keys,ExitKey.rt
space,7.13608,space,6.95541,2,1,17.04456,0,0,0,3,1,Headphone/t2_2.wav,2, 5d331b4c9ce6590019010930,2021-03-24_08h08.31.283,CombinedMST_OA,2020.2.10,Win32,60,,,,,,,,,,,,,,,,,,,,,,,,,,,,,,,,,,,,,,,,,,,,,,,,,,,,,,,,,,,,,,,,,,,,,,,,,,,,,,,,,,,,,,,,,,,,,,,,,,,,,,,,,,,,,,,,
,,,,1,0,1.300945,0,1,1,5,1,Headphone/t3_2.wav,3, 5d331b4c9ce6590019010930,2021-03-24_08h08.31.283,CombinedMST_OA,2020.2.10,Win32,60,,,,,,,,,,,,,,,,,,,,,,,,,,,,,,,,,,,,,,,,,,,,,,,,,,,,,,,,,,,,,,,,,,,,,,,,,,,,,,,,,,,,,,,,,,,,,,,,,,,,,,,,,,,,,,,,
,,,,3,0,0.96846,0,2,2,2,1,Headphone/t2_1.wav,2, 5d331b4c9ce6590019010930,2021-03-24_08h08.31.283,CombinedMST_OA,2020.2.10,Win32,60,,,,,,,,,,,,,,,,,,,,,,,,,,,,,,,,,,,,,,,,,,,,,,,,,,,,,,,,,,,,,,,,,,,,,,,,,,,,,,,,,,,,,,,,,,,,,,,,,,,,,,,,,,,,,,,,
,,,,2,0,1.064215,0,3,3,1,1,Headphone/t1_2.wav,1, 5d331b4c9ce6590019010930,2021-03-24_08h08.31.283,CombinedMST_OA,2020.2.10,Win32,60,,,,,,,,,,,,,,,,,,,,,,,,,,,,,,,,,,,,,,,,,,,,,,,,,,,,,,,,,,,,,,,,,,,,,,,,,,,,,,,,,,,,,,,,,,,,,,,,,,,,,,,,,,,,,,,,
,,,,1,0,0.96607,0,4,4,4,1,Headphone/t3_1.wav,3, 5d331b4c9ce6590019010930,2021-03-24_08h08.31.283,CombinedMST_OA,2020.2.10,Win32,60,,,,,,,,,,,,,,,,,,,,,,,,,,,,,,,,,,,,,,,,,,,,,,,,,,,,,,,,,,,,,,,,,,,,,,,,,,,,,,,,,,,,,,,,,,,,,,,,,,,,,,,,,,,,,,,,
,,,,3,0,1.18843,0,5,5,0,1,Headphone/t1_1.wav,1, 5d331b4c9ce6590019010930,2021-03-24_08h08.31.283,CombinedMST_OA,2020.2.10,Win32,60,,,,,,,,,,,,,,,,,,,,,,,,,,,,,,,,,,,,,,,,,,,,,,,,,,,,,,,,,,,,,,,,,,,,,,,,,,,,,,,,,,,,,,,,,,,,,,,,,,,,,,,,,,,,,,,,
,,,,,,,,,,,,,, 5d331b4c9ce6590019010930,2021-03-24_08h08.31.283,CombinedMST_OA,2020.2.10,Win32,60,space,7.67785,space,16.078735,space,6.059755,space,4.410435,2,1,3.53499,0,0,0,0,1,,Practice/Seagull_A.wav,,2,3,NEW,,Practice,,,,,,,,,,,,,,,,,,,,,,,,,,,,,,,,,,,,,,,,,,,,,,,,,,,,,,,,,,,,,,,,,,,,,,,,,,,,,,,,,,,,,,,,
,,,,,,,,,,,,,, 5d331b4c9ce6590019010930,2021-03-24_08h08.31.283,CombinedMST_OA,2020.2.10,Win32,60,,,,,,,,,2,1,1.01973,0,1,1,1,1,,Practice/Skid_B.wav,,2,3,NEW,,Practice,,,,,,,,,,,,,,,,,,,,,,,,,,,,,,,,,,,,,,,,,,,,,,,,,,,,,,,,,,,,,,,,,,,,,,,,,,,,,,,,,,,,,,,,
,,,,,,,,,,,,,, 5d331b4c9ce6590019010930,2021-03-24_08h08.31.283,CombinedMST_OA,2020.2.10,Win32,60,,,,,,,,,1,1,0.630405,0,2,2,2,1,,Practice/Seagull_A.wav,,1,1,OLD,,Practice,,,,,,,,,,,,,,,,,,,,,,,,,,,,,,,,,,,,,,,,,,,,,,,,,,,,,,,,,,,,,,,,,,,,,,,,,,,,,,,,,,,,,,,,
,,,,,,,,,,,,,, 5d331b4c9ce6590019010930,2021-03-24_08h08.31.283,CombinedMST_OA,2020.2.10,Win32,60,,,,,,,,,2,1,0.621595,0,3,3,3,1,,Practice/Gargle_A.wav,,2,3,NEW,,Practice,,,,,,,,,,,,,,,,,,,,,,,,,,,,,,,,,,,,,,,,,,,,,,,,,,,,,,,,,,,,,,,,,,,,,,,,,,,,,,,,,,,,,,,,
,,,,,,,,,,,,,, 5d331b4c9ce6590019010930,2021-03-24_08h08.31.283,CombinedMST_OA,2020.2.10,Win32,60,,,,,,,,,2,1,0.372575,0,4,4,4,1,,Practice/Gargle_B.wav,,2,2,SIMILAR,,Practice,,,,,,,,,,,,,,,,,,,,,,,,,,,,,,,,,,,,,,,,,,,,,,,,,,,,,,,,,,,,,,,,,,,,,,,,,,,,,,,,,,,,,,,,
,,,,,,,,,,,,,, 5d331b4c9ce6590019010930,2021-03-24_08h08.31.283,CombinedMST_OA,2020.2.10,Win32,60,,,,,,,,,,,,,,,,,,SoundMST/CarStart_E.wav,,2,3,NEW,,C,space,5.76564,2,1,1.190215,0,0,0,0,1,,,,,,,,,,,,,,,,,,,,,,,,,,,,,,,,,,,,,,,,,,,,,,,,,,,,,,,,,,,,,,,,,,,,,,,,,,,,,,
,,,,,,,,,,,,,, 5d331b4c9ce6590019010930,2021-03-24_08h08.31.283,CombinedMST_OA,2020.2.10,Win32,60,,,,,,,,,,,,,,,,,,SoundMST/Bird_C.wav,,2,3,NEW,,C,,,2,1,0.091375,0,1,1,1,1,,,,,,,,,,,,,,,,,,,,,,,,,,,,,,,,,,,,,,,,,,,,,,,,,,,,,,,,,,,,,,,,,,,,,,,,,,,,,,
,,,,,,,,,,,,,, 5d331b4c9ce6590019010930,2021-03-24_08h08.31.283,CombinedMST_OA,2020.2.10,Win32,60,,,,,,,,,,,,,,,,,,SoundMST/Bubbles_A.wav,,2,3,NEW,,C,,,2,1,0.01949,0,2,2,2,1,,,,,,,,,,,,,,,,,,,,,,,,,,,,,,,,,,,,,,,,,,,,,,,,,,,,,,,,,,,,,,,,,,,,,,,,,,,,,,
,,,,,,,,,,,,,, 5d331b4c9ce6590019010930,2021-03-24_08h08.31.283,CombinedMST_OA,2020.2.10,Win32,60,,,,,,,,,,,,,,,,,,SoundMST/Horse.wav,,2,3,NEW,,C,,,2,1,1.97248,0,3,3,3,1,,,,,,,,,,,,,,,,,,,,,,,,,,,,,,,,,,,,,,,,,,,,,,,,,,,,,,,,,,,,,,,,,,,,,,,,,,,,,,
,,,,,,,,,,,,,, 5d331b4c9ce6590019010930,2021-03-24_08h08.31.283,CombinedMST_OA,2020.2.10,Win32,60,,,,,,,,,,,,,,,,,,SoundMST/IceDrop.wav,,2,3,NEW,,C,,,2,1,0.45244,0,4,4,4,1,,,,,,,,,,,,,,,,,,,,,,,,,,,,,,,,,,,,,,,,,,,,,,,,,,,,,,,,,,,,,,,,,,,,,,,,,,,,,,
,,,,,,,,,,,,,, 5d331b4c9ce6590019010930,2021-03-24_08h08.31.283,CombinedMST_OA,2020.2.10,Win32,60,,,,,,,,,,,,,,,,,,SoundMST/Sleighbells_B.wav,,2,3,NEW,,C,,,2,1,0.01909,0,5,5,5,1,,,,,,,,,,,,,,,,,,,,,,,,,,,,,,,,,,,,,,,,,,,,,,,,,,,,,,,,,,,,,,,,,,,,,,,,,,,,,,
,,,,,,,,,,,,,, 5d331b4c9ce6590019010930,2021-03-24_08h08.31.283,CombinedMST_OA,2020.2.10,Win32,60,,,,,,,,,,,,,,,,,,SoundMST/Growl_G.wav,,2,3,NEW,,C,,,2,1,0.601345,0,6,6,6,1,,,,,,,,,,,,,,,,,,,,,,,,,,,,,,,,,,,,,,,,,,,,,,,,,,,,,,,,,,,,,,,,,,,,,,,,,,,,,,
,,,,,,,,,,,,,, 5d331b4c9ce6590019010930,2021-03-24_08h08.31.283,CombinedMST_OA,2020.2.10,Win32,60,,,,,,,,,,,,,,,,,,SoundMST/Chicken_A.wav,,2,3,NEW,,C,,,2,1,0.43372,0,7,7,7,1,,,,,,,,,,,,,,,,,,,,,,,,,,,,,,,,,,,,,,,,,,,,,,,,,,,,,,,,,,,,,,,,,,,,,,,,,,,,,,
,,,,,,,,,,,,,, 5d331b4c9ce6590019010930,2021-03-24_08h08.31.283,CombinedMST_OA,2020.2.10,Win32,60,,,,,,,,,,,,,,,,,,SoundMST/Slurp.wav,,2,3,NEW,,C,,,2,1,0.636405,0,8,8,8,1,,,,,,,,,,,,,,,,,,,,,,,,,,,,,,,,,,,,,,,,,,,,,,,,,,,,,,,,,,,,,,,,,,,,,,,,,,,,,,
,,,,,,,,,,,,,, 5d331b4c9ce6590019010930,2021-03-24_08h08.31.283,CombinedMST_OA,2020.2.10,Win32,60,,,,,,,,,,,,,,,,,,SoundMST/CarStart_D.wav,,2,2,SIMILAR,,C,,,1,0,0.41366,0,9,9,9,1,,,,,,,,,,,,,,,,,,,,,,,,,,,,,,,,,,,,,,,,,,,,,,,,,,,,,,,,,,,,,,,,,,,,,,,,,,,,,,
,,,,,,,,,,,,,, 5d331b4c9ce6590019010930,2021-03-24_08h08.31.283,CombinedMST_OA,2020.2.10,Win32,60,,,,,,,,,,,,,,,,,,SoundMST/Printer.wav,,2,3,NEW,,C,,,2,1,0.009735,0,10,10,10,1,,,,,,,,,,,,,,,,,,,,,,,,,,,,,,,,,,,,,,,,,,,,,,,,,,,,,,,,,,,,,,,,,,,,,,,,,,,,,,
,,,,,,,,,,,,,, 5d331b4c9ce6590019010930,2021-03-24_08h08.31.283,CombinedMST_OA,2020.2.10,Win32,60,,,,,,,,,,,,,,,,,,SoundMST/Bowlingpins.wav,,2,3,NEW,,C,,,2,1,2.249585,0,11,11,11,1,,,,,,,,,,,,,,,,,,,,,,,,,,,,,,,,,,,,,,,,,,,,,,,,,,,,,,,,,,,,,,,,,,,,,,,,,,,,,,
,,,,,,,,,,,,,, 5d331b4c9ce6590019010930,2021-03-24_08h08.31.283,CombinedMST_OA,2020.2.10,Win32,60,,,,,,,,,,,,,,,,,,SoundMST/Fireworks.wav,,2,3,NEW,,C,,,2,1,2.451735,0,12,12,12,1,,,,,,,,,,,,,,,,,,,,,,,,,,,,,,,,,,,,,,,,,,,,,,,,,,,,,,,,,,,,,,,,,,,,,,,,,,,,,,
,,,,,,,,,,,,,, 5d331b4c9ce6590019010930,2021-03-24_08h08.31.283,CombinedMST_OA,2020.2.10,Win32,60,,,,,,,,,,,,,,,,,,SoundMST/Howl.wav,,2,3,NEW,,C,,,2,1,0.4519,0,13,13,13,1,,,,,,,,,,,,,,,,,,,,,,,,,,,,,,,,,,,,,,,,,,,,,,,,,,,,,,,,,,,,,,,,,,,,,,,,,,,,,,
,,,,,,,,,,,,,, 5d331b4c9ce6590019010930,2021-03-24_08h08.31.283,CombinedMST_OA,2020.2.10,Win32,60,,,,,,,,,,,,,,,,,,SoundMST/Goat_B.wav,,2,3,NEW,,C,,,2,1,0.535855,0,14,14,14,1,,,,,,,,,,,,,,,,,,,,,,,,,,,,,,,,,,,,,,,,,,,,,,,,,,,,,,,,,,,,,,,,,,,,,,,,,,,,,,
,,,,,,,,,,,,,, 5d331b4c9ce6590019010930,2021-03-24_08h08.31.283,CombinedMST_OA,2020.2.10,Win32,60,,,,,,,,,,,,,,,,,,SoundMST/Horse.wav,,1,1,OLD,,C,,,1,1,0.06807,0,15,15,15,1,,,,,,,,,,,,,,,,,,,,,,,,,,,,,,,,,,,,,,,,,,,,,,,,,,,,,,,,,,,,,,,,,,,,,,,,,,,,,,
,,,,,,,,,,,,,, 5d331b4c9ce6590019010930,2021-03-24_08h08.31.283,CombinedMST_OA,2020.2.10,Win32,60,,,,,,,,,,,,,,,,,,SoundMST/Laugh_A.wav,,2,3,NEW,,C,,,2,1,0.289415,0,16,16,16,1,,,,,,,,,,,,,,,,,,,,,,,,,,,,,,,,,,,,,,,,,,,,,,,,,,,,,,,,,,,,,,,,,,,,,,,,,,,,,,
,,,,,,,,,,,,,, 5d331b4c9ce6590019010930,2021-03-24_08h08.31.283,CombinedMST_OA,2020.2.10,Win32,60,,,,,,,,,,,,,,,,,,SoundMST/Bubbles_B.wav,,2,2,SIMILAR,,C,,,2,1,0.151365,0,17,17,17,1,,,,,,,,,,,,,,,,,,,,,,,,,,,,,,,,,,,,,,,,,,,,,,,,,,,,,,,,,,,,,,,,,,,,,,,,,,,,,,
,,,,,,,,,,,,,, 5d331b4c9ce6590019010930,2021-03-24_08h08.31.283,CombinedMST_OA,2020.2.10,Win32,60,,,,,,,,,,,,,,,,,,SoundMST/Footsteps_C.wav,,2,3,NEW,,C,,,2,1,0.402245,0,18,18,18,1,,,,,,,,,,,,,,,,,,,,,,,,,,,,,,,,,,,,,,,,,,,,,,,,,,,,,,,,,,,,,,,,,,,,,,,,,,,,,,
,,,,,,,,,,,,,, 5d331b4c9ce6590019010930,2021-03-24_08h08.31.283,CombinedMST_OA,2020.2.10,Win32,60,,,,,,,,,,,,,,,,,,SoundMST/Duck_A.wav,,2,3,NEW,,C,,,2,1,0.40862,0,19,19,19,1,,,,,,,,,,,,,,,,,,,,,,,,,,,,,,,,,,,,,,,,,,,,,,,,,,,,,,,,,,,,,,,,,,,,,,,,,,,,,,
,,,,,,,,,,,,,, 5d331b4c9ce6590019010930,2021-03-24_08h08.31.283,CombinedMST_OA,2020.2.10,Win32,60,,,,,,,,,,,,,,,,,,SoundMST/Cow.wav,,2,3,NEW,,C,,,2,1,0.370805,0,20,20,20,1,,,,,,,,,,,,,,,,,,,,,,,,,,,,,,,,,,,,,,,,,,,,,,,,,,,,,,,,,,,,,,,,,,,,,,,,,,,,,,
,,,,,,,,,,,,,, 5d331b4c9ce6590019010930,2021-03-24_08h08.31.283,CombinedMST_OA,2020.2.10,Win32,60,,,,,,,,,,,,,,,,,,SoundMST/Airhorn.wav,,2,3,NEW,,C,,,2,1,0.351925,0,21,21,21,1,,,,,,,,,,,,,,,,,,,,,,,,,,,,,,,,,,,,,,,,,,,,,,,,,,,,,,,,,,,,,,,,,,,,,,,,,,,,,,
,,,,,,,,,,,,,, 5d331b4c9ce6590019010930,2021-03-24_08h08.31.283,CombinedMST_OA,2020.2.10,Win32,60,,,,,,,,,,,,,,,,,,SoundMST/Printer.wav,,1,1,OLD,,C,,,1,1,0.73519,0,22,22,22,1,,,,,,,,,,,,,,,,,,,,,,,,,,,,,,,,,,,,,,,,,,,,,,,,,,,,,,,,,,,,,,,,,,,,,,,,,,,,,,
,,,,,,,,,,,,,, 5d331b4c9ce6590019010930,2021-03-24_08h08.31.283,CombinedMST_OA,2020.2.10,Win32,60,,,,,,,,,,,,,,,,,,SoundMST/Sleighbells_B.wav,,1,1,OLD,,C,,,1,1,0.38376,0,23,23,23,1,,,,,,,,,,,,,,,,,,,,,,,,,,,,,,,,,,,,,,,,,,,,,,,,,,,,,,,,,,,,,,,,,,,,,,,,,,,,,,
,,,,,,,,,,,,,, 5d331b4c9ce6590019010930,2021-03-24_08h08.31.283,CombinedMST_OA,2020.2.10,Win32,60,,,,,,,,,,,,,,,,,,SoundMST/Camera.wav,,2,3,NEW,,C,,,2,1,0.53308,0,24,24,24,1,,,,,,,,,,,,,,,,,,,,,,,,,,,,,,,,,,,,,,,,,,,,,,,,,,,,,,,,,,,,,,,,,,,,,,,,,,,,,,
,,,,,,,,,,,,,, 5d331b4c9ce6590019010930,2021-03-24_08h08.31.283,CombinedMST_OA,2020.2.10,Win32,60,,,,,,,,,,,,,,,,,,SoundMST/Growl_H.wav,,2,2,SIMILAR,,C,,,1,0,0.603295,0,25,25,25,1,,,,,,,,,,,,,,,,,,,,,,,,,,,,,,,,,,,,,,,,,,,,,,,,,,,,,,,,,,,,,,,,,,,,,,,,,,,,,,
,,,,,,,,,,,,,, 5d331b4c9ce6590019010930,2021-03-24_08h08.31.283,CombinedMST_OA,2020.2.10,Win32,60,,,,,,,,,,,,,,,,,,SoundMST/Whistle_B.wav,,2,3,NEW,,C,,,2,1,0.50579,0,26,26,26,1,,,,,,,,,,,,,,,,,,,,,,,,,,,,,,,,,,,,,,,,,,,,,,,,,,,,,,,,,,,,,,,,,,,,,,,,,,,,,,
,,,,,,,,,,,,,, 5d331b4c9ce6590019010930,2021-03-24_08h08.31.283,CombinedMST_OA,2020.2.10,Win32,60,,,,,,,,,,,,,,,,,,SoundMST/Piano_D.wav,,2,3,NEW,,C,,,2,1,0.291795,0,27,27,27,1,,,,,,,,,,,,,,,,,,,,,,,,,,,,,,,,,,,,,,,,,,,,,,,,,,,,,,,,,,,,,,,,,,,,,,,,,,,,,,
,,,,,,,,,,,,,, 5d331b4c9ce6590019010930,2021-03-24_08h08.31.283,CombinedMST_OA,2020.2.10,Win32,60,,,,,,,,,,,,,,,,,,SoundMST/Coin_D.wav,,2,3,NEW,,C,,,2,1,0.60228,0,28,28,28,1,,,,,,,,,,,,,,,,,,,,,,,,,,,,,,,,,,,,,,,,,,,,,,,,,,,,,,,,,,,,,,,,,,,,,,,,,,,,,,
,,,,,,,,,,,,,, 5d331b4c9ce6590019010930,2021-03-24_08h08.31.283,CombinedMST_OA,2020.2.10,Win32,60,,,,,,,,,,,,,,,,,,SoundMST/Bird_A.wav,,2,2,SIMILAR,,C,,,1,0,0.21853,0,29,29,29,1,,,,,,,,,,,,,,,,,,,,,,,,,,,,,,,,,,,,,,,,,,,,,,,,,,,,,,,,,,,,,,,,,,,,,,,,,,,,,,
,,,,,,,,,,,,,, 5d331b4c9ce6590019010930,2021-03-24_08h08.31.283,CombinedMST_OA,2020.2.10,Win32,60,,,,,,,,,,,,,,,,,,SoundMST/PaperRip.wav,,2,3,NEW,,C,,,2,1,0.369095,0,30,30,30,1,,,,,,,,,,,,,,,,,,,,,,,,,,,,,,,,,,,,,,,,,,,,,,,,,,,,,,,,,,,,,,,,,,,,,,,,,,,,,,
,,,,,,,,,,,,,, 5d331b4c9ce6590019010930,2021-03-24_08h08.31.283,CombinedMST_OA,2020.2.10,Win32,60,,,,,,,,,,,,,,,,,,SoundMST/Slurp.wav,,1,1,OLD,,C,,,1,1,1.21915,0,31,31,31,1,,,,,,,,,,,,,,,,,,,,,,,,,,,,,,,,,,,,,,,,,,,,,,,,,,,,,,,,,,,,,,,,,,,,,,,,,,,,,,
,,,,,,,,,,,,,, 5d331b4c9ce6590019010930,2021-03-24_08h08.31.283,CombinedMST_OA,2020.2.10,Win32,60,,,,,,,,,,,,,,,,,,SoundMST/Howl.wav,,1,1,OLD,,C,,,1,1,0.34361,0,32,32,32,1,,,,,,,,,,,,,,,,,,,,,,,,,,,,,,,,,,,,,,,,,,,,,,,,,,,,,,,,,,,,,,,,,,,,,,,,,,,,,,
,,,,,,,,,,,,,, 5d331b4c9ce6590019010930,2021-03-24_08h08.31.283,CombinedMST_OA,2020.2.10,Win32,60,,,,,,,,,,,,,,,,,,SoundMST/IceDrop.wav,,1,1,OLD,,C,,,1,1,0.669055,0,33,33,33,1,,,,,,,,,,,,,,,,,,,,,,,,,,,,,,,,,,,,,,,,,,,,,,,,,,,,,,,,,,,,,,,,,,,,,,,,,,,,,,
,,,,,,,,,,,,,, 5d331b4c9ce6590019010930,2021-03-24_08h08.31.283,CombinedMST_OA,2020.2.10,Win32,60,,,,,,,,,,,,,,,,,,SoundMST/Pour_B.wav,,2,3,NEW,,C,,,2,1,0.53441,0,34,34,34,1,,,,,,,,,,,,,,,,,,,,,,,,,,,,,,,,,,,,,,,,,,,,,,,,,,,,,,,,,,,,,,,,,,,,,,,,,,,,,,
,,,,,,,,,,,,,, 5d331b4c9ce6590019010930,2021-03-24_08h08.31.283,CombinedMST_OA,2020.2.10,Win32,60,,,,,,,,,,,,,,,,,,SoundMST/Fireworks.wav,,1,1,OLD,,C,,,1,1,0.41685,0,35,35,35,1,,,,,,,,,,,,,,,,,,,,,,,,,,,,,,,,,,,,,,,,,,,,,,,,,,,,,,,,,,,,,,,,,,,,,,,,,,,,,,
,,,,,,,,,,,,,, 5d331b4c9ce6590019010930,2021-03-24_08h08.31.283,CombinedMST_OA,2020.2.10,Win32,60,,,,,,,,,,,,,,,,,,SoundMST/Footsteps_F.wav,,2,2,SIMILAR,,C,,,2,1,0.37141,0,36,36,36,1,,,,,,,,,,,,,,,,,,,,,,,,,,,,,,,,,,,,,,,,,,,,,,,,,,,,,,,,,,,,,,,,,,,,,,,,,,,,,,
,,,,,,,,,,,,,, 5d331b4c9ce6590019010930,2021-03-24_08h08.31.283,CombinedMST_OA,2020.2.10,Win32,60,,,,,,,,,,,,,,,,,,SoundMST/Chicken_A.wav,,1,1,OLD,,C,,,1,1,0.290705,0,37,37,37,1,,,,,,,,,,,,,,,,,,,,,,,,,,,,,,,,,,,,,,,,,,,,,,,,,,,,,,,,,,,,,,,,,,,,,,,,,,,,,,
,,,,,,,,,,,,,, 5d331b4c9ce6590019010930,2021-03-24_08h08.31.283,CombinedMST_OA,2020.2.10,Win32,60,,,,,,,,,,,,,,,,,,SoundMST/Bullfrog.wav,,2,3,NEW,,C,,,2,1,0.38596,0,38,38,38,1,,,,,,,,,,,,,,,,,,,,,,,,,,,,,,,,,,,,,,,,,,,,,,,,,,,,,,,,,,,,,,,,,,,,,,,,,,,,,,
,,,,,,,,,,,,,, 5d331b4c9ce6590019010930,2021-03-24_08h08.31.283,CombinedMST_OA,2020.2.10,Win32,60,,,,,,,,,,,,,,,,,,SoundMST/Bowlingpins.wav,,1,1,OLD,,C,,,1,1,0.327945,0,39,39,39,1,,,,,,,,,,,,,,,,,,,,,,,,,,,,,,,,,,,,,,,,,,,,,,,,,,,,,,,,,,,,,,,,,,,,,,,,,,,,,,
,,,,,,,,,,,,,, 5d331b4c9ce6590019010930,2021-03-24_08h08.31.283,CombinedMST_OA,2020.2.10,Win32,60,,,,,,,,,,,,,,,,,,SoundMST/Helicopter_A.wav,,2,3,NEW,,C,,,2,1,0.359775,0,40,40,40,1,,,,,,,,,,,,,,,,,,,,,,,,,,,,,,,,,,,,,,,,,,,,,,,,,,,,,,,,,,,,,,,,,,,,,,,,,,,,,,
,,,,,,,,,,,,,, 5d331b4c9ce6590019010930,2021-03-24_08h08.31.283,CombinedMST_OA,2020.2.10,Win32,60,,,,,,,,,,,,,,,,,,SoundMST/Goat_C.wav,,2,2,SIMILAR,,C,,,1,0,0.36811,0,41,41,41,1,,,,,,,,,,,,,,,,,,,,,,,,,,,,,,,,,,,,,,,,,,,,,,,,,,,,,,,,,,,,,,,,,,,,,,,,,,,,,,
,,,,,,,,,,,,,, 5d331b4c9ce6590019010930,2021-03-24_08h08.31.283,CombinedMST_OA,2020.2.10,Win32,60,,,,,,,,,,,,,,,,,,SoundMST/HairDryer_A.wav,,2,3,NEW,,C,,,2,1,0.286255,0,42,42,42,1,,,,,,,,,,,,,,,,,,,,,,,,,,,,,,,,,,,,,,,,,,,,,,,,,,,,,,,,,,,,,,,,,,,,,,,,,,,,,,
,,,,,,,,,,,,,, 5d331b4c9ce6590019010930,2021-03-24_08h08.31.283,CombinedMST_OA,2020.2.10,Win32,60,,,,,,,,,,,,,,,,,,SoundMST/Duck_B.wav,,2,2,SIMILAR,,C,,,1,0,0.861275,0,43,43,43,1,,,,,,,,,,,,,,,,,,,,,,,,,,,,,,,,,,,,,,,,,,,,,,,,,,,,,,,,,,,,,,,,,,,,,,,,,,,,,,
,,,,,,,,,,,,,, 5d331b4c9ce6590019010930,2021-03-24_08h08.31.283,CombinedMST_OA,2020.2.10,Win32,60,,,,,,,,,,,,,,,,,,SoundMST/PaperRip.wav,,1,1,OLD,,C,,,1,1,0.33677,0,44,44,44,1,,,,,,,,,,,,,,,,,,,,,,,,,,,,,,,,,,,,,,,,,,,,,,,,,,,,,,,,,,,,,,,,,,,,,,,,,,,,,,
,,,,,,,,,,,,,, 5d331b4c9ce6590019010930,2021-03-24_08h08.31.283,CombinedMST_OA,2020.2.10,Win32,60,,,,,,,,,,,,,,,,,,SoundMST/Dog_H.wav,,2,3,NEW,,C,,,2,1,0.359225,0,45,45,45,1,,,,,,,,,,,,,,,,,,,,,,,,,,,,,,,,,,,,,,,,,,,,,,,,,,,,,,,,,,,,,,,,,,,,,,,,,,,,,,
,,,,,,,,,,,,,, 5d331b4c9ce6590019010930,2021-03-24_08h08.31.283,CombinedMST_OA,2020.2.10,Win32,60,,,,,,,,,,,,,,,,,,SoundMST/Camera.wav,,1,1,OLD,,C,,,1,1,0.98462,0,46,46,46,1,,,,,,,,,,,,,,,,,,,,,,,,,,,,,,,,,,,,,,,,,,,,,,,,,,,,,,,,,,,,,,,,,,,,,,,,,,,,,,
,,,,,,,,,,,,,, 5d331b4c9ce6590019010930,2021-03-24_08h08.31.283,CombinedMST_OA,2020.2.10,Win32,60,,,,,,,,,,,,,,,,,,SoundMST/Laugh_D.wav,,2,2,SIMILAR,,C,,,1,0,0.40188,0,47,47,47,1,,,,,,,,,,,,,,,,,,,,,,,,,,,,,,,,,,,,,,,,,,,,,,,,,,,,,,,,,,,,,,,,,,,,,,,,,,,,,,
,,,,,,,,,,,,,, 5d331b4c9ce6590019010930,2021-03-24_08h08.31.283,CombinedMST_OA,2020.2.10,Win32,60,,,,,,,,,,,,,,,,,,SoundMST/Sneeze_B.wav,,2,3,NEW,,C,,,2,1,0.495575,0,48,48,48,1,,,,,,,,,,,,,,,,,,,,,,,,,,,,,,,,,,,,,,,,,,,,,,,,,,,,,,,,,,,,,,,,,,,,,,,,,,,,,,
,,,,,,,,,,,,,, 5d331b4c9ce6590019010930,2021-03-24_08h08.31.283,CombinedMST_OA,2020.2.10,Win32,60,,,,,,,,,,,,,,,,,,SoundMST/Cow.wav,,1,1,OLD,,C,,,1,1,0.602385,0,49,49,49,1,,,,,,,,,,,,,,,,,,,,,,,,,,,,,,,,,,,,,,,,,,,,,,,,,,,,,,,,,,,,,,,,,,,,,,,,,,,,,,
,,,,,,,,,,,,,, 5d331b4c9ce6590019010930,2021-03-24_08h08.31.283,CombinedMST_OA,2020.2.10,Win32,60,,,,,,,,,,,,,,,,,,SoundMST/Donkey.wav,,2,3,NEW,,C,,,2,1,0.360375,0,50,50,50,1,,,,,,,,,,,,,,,,,,,,,,,,,,,,,,,,,,,,,,,,,,,,,,,,,,,,,,,,,,,,,,,,,,,,,,,,,,,,,,
,,,,,,,,,,,,,, 5d331b4c9ce6590019010930,2021-03-24_08h08.31.283,CombinedMST_OA,2020.2.10,Win32,60,,,,,,,,,,,,,,,,,,SoundMST/Coin_E.wav,,2,2,SIMILAR,,C,,,1,0,0.418365,0,51,51,51,1,,,,,,,,,,,,,,,,,,,,,,,,,,,,,,,,,,,,,,,,,,,,,,,,,,,,,,,,,,,,,,,,,,,,,,,,,,,,,,
,,,,,,,,,,,,,, 5d331b4c9ce6590019010930,2021-03-24_08h08.31.283,CombinedMST_OA,2020.2.10,Win32,60,,,,,,,,,,,,,,,,,,SoundMST/Buzz.wav,,2,3,NEW,,C,,,2,1,0.90193,0,52,52,52,1,,,,,,,,,,,,,,,,,,,,,,,,,,,,,,,,,,,,,,,,,,,,,,,,,,,,,,,,,,,,,,,,,,,,,,,,,,,,,,
,,,,,,,,,,,,,, 5d331b4c9ce6590019010930,2021-03-24_08h08.31.283,CombinedMST_OA,2020.2.10,Win32,60,,,,,,,,,,,,,,,,,,SoundMST/Piano_D.wav,,1,1,OLD,,C,,,1,1,0.53766,0,53,53,53,1,,,,,,,,,,,,,,,,,,,,,,,,,,,,,,,,,,,,,,,,,,,,,,,,,,,,,,,,,,,,,,,,,,,,,,,,,,,,,,
,,,,,,,,,,,,,, 5d331b4c9ce6590019010930,2021-03-24_08h08.31.283,CombinedMST_OA,2020.2.10,Win32,60,,,,,,,,,,,,,,,,,,SoundMST/Hammer_A.wav,,2,3,NEW,,C,,,2,1,0.00352,0,54,54,54,1,,,,,,,,,,,,,,,,,,,,,,,,,,,,,,,,,,,,,,,,,,,,,,,,,,,,,,,,,,,,,,,,,,,,,,,,,,,,,,
,,,,,,,,,,,,,, 5d331b4c9ce6590019010930,2021-03-24_08h08.31.283,CombinedMST_OA,2020.2.10,Win32,60,,,,,,,,,,,,,,,,,,SoundMST/Airhorn.wav,,1,1,OLD,,C,,,2,0,1.958055,0,55,55,55,1,,,,,,,,,,,,,,,,,,,,,,,,,,,,,,,,,,,,,,,,,,,,,,,,,,,,,,,,,,,,,,,,,,,,,,,,,,,,,,
,,,,,,,,,,,,,, 5d331b4c9ce6590019010930,2021-03-24_08h08.31.283,CombinedMST_OA,2020.2.10,Win32,60,,,,,,,,,,,,,,,,,,SoundMST/Whistle_C.wav,,2,2,SIMILAR,,C,,,1,0,0.38607,0,56,56,56,1,,,,,,,,,,,,,,,,,,,,,,,,,,,,,,,,,,,,,,,,,,,,,,,,,,,,,,,,,,,,,,,,,,,,,,,,,,,,,,
,,,,,,,,,,,,,, 5d331b4c9ce6590019010930,2021-03-24_08h08.31.283,CombinedMST_OA,2020.2.10,Win32,60,,,,,,,,,,,,,,,,,,SoundMST/Faucet_A.wav,,2,3,NEW,,C,,,2,1,0.501765,0,57,57,57,1,,,,,,,,,,,,,,,,,,,,,,,,,,,,,,,,,,,,,,,,,,,,,,,,,,,,,,,,,,,,,,,,,,,,,,,,,,,,,,
,,,,,,,,,,,,,, 5d331b4c9ce6590019010930,2021-03-24_08h08.31.283,CombinedMST_OA,2020.2.10,Win32,60,,,,,,,,,,,,,,,,,,SoundMST/Pour_C.wav,,2,2,SIMILAR,,C,,,2,1,0.30233,0,58,58,58,1,,,,,,,,,,,,,,,,,,,,,,,,,,,,,,,,,,,,,,,,,,,,,,,,,,,,,,,,,,,,,,,,,,,,,,,,,,,,,,
,,,,,,,,,,,,,, 5d331b4c9ce6590019010930,2021-03-24_08h08.31.283,CombinedMST_OA,2020.2.10,Win32,60,,,,,,,,,,,,,,,,,,SoundMST/Crow_B.wav,,2,3,NEW,,C,,,1,0,0.49534,0,59,59,59,1,,,,,,,,,,,,,,,,,,,,,,,,,,,,,,,,,,,,,,,,,,,,,,,,,,,,,,,,,,,,,,,,,,,,,,,,,,,,,,
,,,,,,,,,,,,,, 5d331b4c9ce6590019010930,2021-03-24_08h08.31.283,CombinedMST_OA,2020.2.10,Win32,60,,,,,,,,,,,,,,,,,,SoundMST/Trumpet_B.wav,,2,3,NEW,,C,,,2,1,0.12069,0,60,60,60,1,,,,,,,,,,,,,,,,,,,,,,,,,,,,,,,,,,,,,,,,,,,,,,,,,,,,,,,,,,,,,,,,,,,,,,,,,,,,,,
,,,,,,,,,,,,,, 5d331b4c9ce6590019010930,2021-03-24_08h08.31.283,CombinedMST_OA,2020.2.10,Win32,60,,,,,,,,,,,,,,,,,,SoundMST/Bullfrog.wav,,1,1,OLD,,C,,,1,1,1.33767,0,61,61,61,1,,,,,,,,,,,,,,,,,,,,,,,,,,,,,,,,,,,,,,,,,,,,,,,,,,,,,,,,,,,,,,,,,,,,,,,,,,,,,,
,,,,,,,,,,,,,, 5d331b4c9ce6590019010930,2021-03-24_08h08.31.283,CombinedMST_OA,2020.2.10,Win32,60,,,,,,,,,,,,,,,,,,SoundMST/Helicopter_A.wav,,1,1,OLD,,C,,,1,1,0.35853,0,62,62,62,1,,,,,,,,,,,,,,,,,,,,,,,,,,,,,,,,,,,,,,,,,,,,,,,,,,,,,,,,,,,,,,,,,,,,,,,,,,,,,,
,,,,,,,,,,,,,, 5d331b4c9ce6590019010930,2021-03-24_08h08.31.283,CombinedMST_OA,2020.2.10,Win32,60,,,,,,,,,,,,,,,,,,SoundMST/Elephant_C.wav,,2,3,NEW,,C,,,2,1,0.378405,0,63,63,63,1,,,,,,,,,,,,,,,,,,,,,,,,,,,,,,,,,,,,,,,,,,,,,,,,,,,,,,,,,,,,,,,,,,,,,,,,,,,,,,
,,,,,,,,,,,,,, 5d331b4c9ce6590019010930,2021-03-24_08h08.31.283,CombinedMST_OA,2020.2.10,Win32,60,,,,,,,,,,,,,,,,,,SoundMST/Sneeze_B.wav,,1,1,OLD,,C,,,2,0,0.36885,0,64,64,64,1,,,,,,,,,,,,,,,,,,,,,,,,,,,,,,,,,,,,,,,,,,,,,,,,,,,,,,,,,,,,,,,,,,,,,,,,,,,,,,
,,,,,,,,,,,,,, 5d331b4c9ce6590019010930,2021-03-24_08h08.31.283,CombinedMST_OA,2020.2.10,Win32,60,,,,,,,,,,,,,,,,,,SoundMST/Chime_B.wav,,2,3,NEW,,C,,,2,1,0.752675,0,65,65,65,1,,,,,,,,,,,,,,,,,,,,,,,,,,,,,,,,,,,,,,,,,,,,,,,,,,,,,,,,,,,,,,,,,,,,,,,,,,,,,,
,,,,,,,,,,,,,, 5d331b4c9ce6590019010930,2021-03-24_08h08.31.283,CombinedMST_OA,2020.2.10,Win32,60,,,,,,,,,,,,,,,,,,SoundMST/Phone_D.wav,,2,3,NEW,,C,,,2,1,0.33369,0,66,66,66,1,,,,,,,,,,,,,,,,,,,,,,,,,,,,,,,,,,,,,,,,,,,,,,,,,,,,,,,,,,,,,,,,,,,,,,,,,,,,,,
,,,,,,,,,,,,,, 5d331b4c9ce6590019010930,2021-03-24_08h08.31.283,CombinedMST_OA,2020.2.10,Win32,60,,,,,,,,,,,,,,,,,,SoundMST/HairDryer_A.wav,,1,1,OLD,,C,,,1,1,0.70158,0,67,67,67,1,,,,,,,,,,,,,,,,,,,,,,,,,,,,,,,,,,,,,,,,,,,,,,,,,,,,,,,,,,,,,,,,,,,,,,,,,,,,,,
,,,,,,,,,,,,,, 5d331b4c9ce6590019010930,2021-03-24_08h08.31.283,CombinedMST_OA,2020.2.10,Win32,60,,,,,,,,,,,,,,,,,,SoundMST/Puff_A.wav,,2,3,NEW,,C,,,2,1,0.320355,0,68,68,68,1,,,,,,,,,,,,,,,,,,,,,,,,,,,,,,,,,,,,,,,,,,,,,,,,,,,,,,,,,,,,,,,,,,,,,,,,,,,,,,
,,,,,,,,,,,,,, 5d331b4c9ce6590019010930,2021-03-24_08h08.31.283,CombinedMST_OA,2020.2.10,Win32,60,,,,,,,,,,,,,,,,,,SoundMST/Dog_F.wav,,2,2,SIMILAR,,C,,,1,0,1.869995,0,69,69,69,1,,,,,,,,,,,,,,,,,,,,,,,,,,,,,,,,,,,,,,,,,,,,,,,,,,,,,,,,,,,,,,,,,,,,,,,,,,,,,,
,,,,,,,,,,,,,, 5d331b4c9ce6590019010930,2021-03-24_08h08.31.283,CombinedMST_OA,2020.2.10,Win32,60,,,,,,,,,,,,,,,,,,SoundMST/Donkey.wav,,1,1,OLD,,C,,,1,1,0.334915,0,70,70,70,1,,,,,,,,,,,,,,,,,,,,,,,,,,,,,,,,,,,,,,,,,,,,,,,,,,,,,,,,,,,,,,,,,,,,,,,,,,,,,,
,,,,,,,,,,,,,, 5d331b4c9ce6590019010930,2021-03-24_08h08.31.283,CombinedMST_OA,2020.2.10,Win32,60,,,,,,,,,,,,,,,,,,SoundMST/Toilet_B.wav,,2,3,NEW,,C,,,1,0,1.102815,0,71,71,71,1,,,,,,,,,,,,,,,,,,,,,,,,,,,,,,,,,,,,,,,,,,,,,,,,,,,,,,,,,,,,,,,,,,,,,,,,,,,,,,
,,,,,,,,,,,,,, 5d331b4c9ce6590019010930,2021-03-24_08h08.31.283,CombinedMST_OA,2020.2.10,Win32,60,,,,,,,,,,,,,,,,,,SoundMST/Writing_A.wav,,2,3,NEW,,C,,,2,1,0.23532,0,72,72,72,1,,,,,,,,,,,,,,,,,,,,,,,,,,,,,,,,,,,,,,,,,,,,,,,,,,,,,,,,,,,,,,,,,,,,,,,,,,,,,,
,,,,,,,,,,,,,, 5d331b4c9ce6590019010930,2021-03-24_08h08.31.283,CombinedMST_OA,2020.2.10,Win32,60,,,,,,,,,,,,,,,,,,SoundMST/Cello.wav,,2,3,NEW,,C,,,2,1,0.868515,0,73,73,73,1,,,,,,,,,,,,,,,,,,,,,,,,,,,,,,,,,,,,,,,,,,,,,,,,,,,,,,,,,,,,,,,,,,,,,,,,,,,,,,
,,,,,,,,,,,,,, 5d331b4c9ce6590019010930,2021-03-24_08h08.31.283,CombinedMST_OA,2020.2.10,Win32,60,,,,,,,,,,,,,,,,,,SoundMST/Crow_A.wav,,2,2,SIMILAR,,C,,,1,0,0.368025,0,74,74,74,1,,,,,,,,,,,,,,,,,,,,,,,,,,,,,,,,,,,,,,,,,,,,,,,,,,,,,,,,,,,,,,,,,,,,,,,,,,,,,,
,,,,,,,,,,,,,, 5d331b4c9ce6590019010930,2021-03-24_08h08.31.283,CombinedMST_OA,2020.2.10,Win32,60,,,,,,,,,,,,,,,,,,SoundMST/Hammer_A.wav,,1,1,OLD,,C,,,2,0,0.676195,0,75,75,75,1,,,,,,,,,,,,,,,,,,,,,,,,,,,,,,,,,,,,,,,,,,,,,,,,,,,,,,,,,,,,,,,,,,,,,,,,,,,,,,
,,,,,,,,,,,,,, 5d331b4c9ce6590019010930,2021-03-24_08h08.31.283,CombinedMST_OA,2020.2.10,Win32,60,,,,,,,,,,,,,,,,,,SoundMST/Cuckoo_A.wav,,2,3,NEW,,C,,,2,1,0.501285,0,76,76,76,1,,,,,,,,,,,,,,,,,,,,,,,,,,,,,,,,,,,,,,,,,,,,,,,,,,,,,,,,,,,,,,,,,,,,,,,,,,,,,,
,,,,,,,,,,,,,, 5d331b4c9ce6590019010930,2021-03-24_08h08.31.283,CombinedMST_OA,2020.2.10,Win32,60,,,,,,,,,,,,,,,,,,SoundMST/Buzz.wav,,1,1,OLD,,C,,,1,1,0.686625,0,77,77,77,1,,,,,,,,,,,,,,,,,,,,,,,,,,,,,,,,,,,,,,,,,,,,,,,,,,,,,,,,,,,,,,,,,,,,,,,,,,,,,,
,,,,,,,,,,,,,, 5d331b4c9ce6590019010930,2021-03-24_08h08.31.283,CombinedMST_OA,2020.2.10,Win32,60,,,,,,,,,,,,,,,,,,SoundMST/Siren_E.wav,,2,3,NEW,,C,,,2,1,0.703445,0,78,78,78,1,,,,,,,,,,,,,,,,,,,,,,,,,,,,,,,,,,,,,,,,,,,,,,,,,,,,,,,,,,,,,,,,,,,,,,,,,,,,,,
,,,,,,,,,,,,,, 5d331b4c9ce6590019010930,2021-03-24_08h08.31.283,CombinedMST_OA,2020.2.10,Win32,60,,,,,,,,,,,,,,,,,,SoundMST/Trumpet_B.wav,,1,1,OLD,,C,,,1,1,0.88695,0,79,79,79,1,,,,,,,,,,,,,,,,,,,,,,,,,,,,,,,,,,,,,,,,,,,,,,,,,,,,,,,,,,,,,,,,,,,,,,,,,,,,,,
,,,,,,,,,,,,,, 5d331b4c9ce6590019010930,2021-03-24_08h08.31.283,CombinedMST_OA,2020.2.10,Win32,60,,,,,,,,,,,,,,,,,,SoundMST/Wind_B.wav,,2,3,NEW,,C,,,2,1,1.028825,0,80,80,80,1,,,,,,,,,,,,,,,,,,,,,,,,,,,,,,,,,,,,,,,,,,,,,,,,,,,,,,,,,,,,,,,,,,,,,,,,,,,,,,
,,,,,,,,,,,,,, 5d331b4c9ce6590019010930,2021-03-24_08h08.31.283,CombinedMST_OA,2020.2.10,Win32,60,,,,,,,,,,,,,,,,,,SoundMST/Cat_A.wav,,2,3,NEW,,C,,,2,1,0.78527,0,81,81,81,1,,,,,,,,,,,,,,,,,,,,,,,,,,,,,,,,,,,,,,,,,,,,,,,,,,,,,,,,,,,,,,,,,,,,,,,,,,,,,,
,,,,,,,,,,,,,, 5d331b4c9ce6590019010930,2021-03-24_08h08.31.283,CombinedMST_OA,2020.2.10,Win32,60,,,,,,,,,,,,,,,,,,SoundMST/Phone_E.wav,,2,2,SIMILAR,,C,,,1,0,0.35064,0,82,82,82,1,,,,,,,,,,,,,,,,,,,,,,,,,,,,,,,,,,,,,,,,,,,,,,,,,,,,,,,,,,,,,,,,,,,,,,,,,,,,,,
,,,,,,,,,,,,,, 5d331b4c9ce6590019010930,2021-03-24_08h08.31.283,CombinedMST_OA,2020.2.10,Win32,60,,,,,,,,,,,,,,,,,,SoundMST/Chomp_A.wav,,2,3,NEW,,C,,,2,1,0.002005,0,83,83,83,1,,,,,,,,,,,,,,,,,,,,,,,,,,,,,,,,,,,,,,,,,,,,,,,,,,,,,,,,,,,,,,,,,,,,,,,,,,,,,,
,,,,,,,,,,,,,, 5d331b4c9ce6590019010930,2021-03-24_08h08.31.283,CombinedMST_OA,2020.2.10,Win32,60,,,,,,,,,,,,,,,,,,SoundMST/Elephant_A.wav,,2,2,SIMILAR,,C,,,1,0,0.35279,0,84,84,84,1,,,,,,,,,,,,,,,,,,,,,,,,,,,,,,,,,,,,,,,,,,,,,,,,,,,,,,,,,,,,,,,,,,,,,,,,,,,,,,
,,,,,,,,,,,,,, 5d331b4c9ce6590019010930,2021-03-24_08h08.31.283,CombinedMST_OA,2020.2.10,Win32,60,,,,,,,,,,,,,,,,,,SoundMST/Cup.wav,,2,3,NEW,,C,,,2,1,1.08477,0,85,85,85,1,,,,,,,,,,,,,,,,,,,,,,,,,,,,,,,,,,,,,,,,,,,,,,,,,,,,,,,,,,,,,,,,,,,,,,,,,,,,,,
,,,,,,,,,,,,,, 5d331b4c9ce6590019010930,2021-03-24_08h08.31.283,CombinedMST_OA,2020.2.10,Win32,60,,,,,,,,,,,,,,,,,,SoundMST/Chime_A.wav,,2,2,SIMILAR,,C,,,1,0,0.336945,0,86,86,86,1,,,,,,,,,,,,,,,,,,,,,,,,,,,,,,,,,,,,,,,,,,,,,,,,,,,,,,,,,,,,,,,,,,,,,,,,,,,,,,
,,,,,,,,,,,,,, 5d331b4c9ce6590019010930,2021-03-24_08h08.31.283,CombinedMST_OA,2020.2.10,Win32,60,,,,,,,,,,,,,,,,,,SoundMST/Droplet_B.wav,,2,3,NEW,,C,,,2,1,0.319745,0,87,87,87,1,,,,,,,,,,,,,,,,,,,,,,,,,,,,,,,,,,,,,,,,,,,,,,,,,,,,,,,,,,,,,,,,,,,,,,,,,,,,,,
,,,,,,,,,,,,,, 5d331b4c9ce6590019010930,2021-03-24_08h08.31.283,CombinedMST_OA,2020.2.10,Win32,60,,,,,,,,,,,,,,,,,,SoundMST/Faucet_C.wav,,2,2,SIMILAR,,C,,,1,0,0.394895,0,88,88,88,1,,,,,,,,,,,,,,,,,,,,,,,,,,,,,,,,,,,,,,,,,,,,,,,,,,,,,,,,,,,,,,,,,,,,,,,,,,,,,,
,,,,,,,,,,,,,, 5d331b4c9ce6590019010930,2021-03-24_08h08.31.283,CombinedMST_OA,2020.2.10,Win32,60,,,,,,,,,,,,,,,,,,SoundMST/Puff_A.wav,,1,1,OLD,,C,,,1,1,0.373075,0,89,89,89,1,,,,,,,,,,,,,,,,,,,,,,,,,,,,,,,,,,,,,,,,,,,,,,,,,,,,,,,,,,,,,,,,,,,,,,,,,,,,,,
,,,,,,,,,,,,,, 5d331b4c9ce6590019010930,2021-03-24_08h08.31.283,CombinedMST_OA,2020.2.10,Win32,60,,,,,,,,,,,,,,,,,,SoundMST/Clap_B.wav,,2,3,NEW,,C,,,2,1,0.38456,0,90,90,90,1,,,,,,,,,,,,,,,,,,,,,,,,,,,,,,,,,,,,,,,,,,,,,,,,,,,,,,,,,,,,,,,,,,,,,,,,,,,,,,
,,,,,,,,,,,,,, 5d331b4c9ce6590019010930,2021-03-24_08h08.31.283,CombinedMST_OA,2020.2.10,Win32,60,,,,,,,,,,,,,,,,,,SoundMST/Cello.wav,,1,1,OLD,,C,,,1,1,0.32431,0,91,91,91,1,,,,,,,,,,,,,,,,,,,,,,,,,,,,,,,,,,,,,,,,,,,,,,,,,,,,,,,,,,,,,,,,,,,,,,,,,,,,,,
,,,,,,,,,,,,,, 5d331b4c9ce6590019010930,2021-03-24_08h08.31.283,CombinedMST_OA,2020.2.10,Win32,60,,,,,,,,,,,,,,,,,,SoundMST/Mosquito_B.wav,,2,3,NEW,,C,,,2,1,0.4025,0,92,92,92,1,,,,,,,,,,,,,,,,,,,,,,,,,,,,,,,,,,,,,,,,,,,,,,,,,,,,,,,,,,,,,,,,,,,,,,,,,,,,,,
,,,,,,,,,,,,,, 5d331b4c9ce6590019010930,2021-03-24_08h08.31.283,CombinedMST_OA,2020.2.10,Win32,60,,,,,,,,,,,,,,,,,,SoundMST/Writing_C.wav,,2,2,SIMILAR,,C,,,1,0,0.38652,0,93,93,93,1,,,,,,,,,,,,,,,,,,,,,,,,,,,,,,,,,,,,,,,,,,,,,,,,,,,,,,,,,,,,,,,,,,,,,,,,,,,,,,
,,,,,,,,,,,,,, 5d331b4c9ce6590019010930,2021-03-24_08h08.31.283,CombinedMST_OA,2020.2.10,Win32,60,,,,,,,,,,,,,,,,,,SoundMST/Guitar_B.wav,,2,3,NEW,,C,,,2,1,0.751205,0,94,94,94,1,,,,,,,,,,,,,,,,,,,,,,,,,,,,,,,,,,,,,,,,,,,,,,,,,,,,,,,,,,,,,,,,,,,,,,,,,,,,,,
,,,,,,,,,,,,,, 5d331b4c9ce6590019010930,2021-03-24_08h08.31.283,CombinedMST_OA,2020.2.10,Win32,60,,,,,,,,,,,,,,,,,,SoundMST/Toilet_B.wav,,1,1,OLD,,C,,,1,1,0.38665,0,95,95,95,1,,,,,,,,,,,,,,,,,,,,,,,,,,,,,,,,,,,,,,,,,,,,,,,,,,,,,,,,,,,,,,,,,,,,,,,,,,,,,,
,,,,,,,,,,,,,, 5d331b4c9ce6590019010930,2021-03-24_08h08.31.283,CombinedMST_OA,2020.2.10,Win32,60,,,,,,,,,,,,,,,,,,SoundMST/Bagpipe.wav,,2,3,NEW,,C,,,2,1,0.44147,0,96,96,96,1,,,,,,,,,,,,,,,,,,,,,,,,,,,,,,,,,,,,,,,,,,,,,,,,,,,,,,,,,,,,,,,,,,,,,,,,,,,,,,
,,,,,,,,,,,,,, 5d331b4c9ce6590019010930,2021-03-24_08h08.31.283,CombinedMST_OA,2020.2.10,Win32,60,,,,,,,,,,,,,,,,,,SoundMST/Cuckoo_A.wav,,1,1,OLD,,C,,,1,1,0.3335,0,97,97,97,1,,,,,,,,,,,,,,,,,,,,,,,,,,,,,,,,,,,,,,,,,,,,,,,,,,,,,,,,,,,,,,,,,,,,,,,,,,,,,,
,,,,,,,,,,,,,, 5d331b4c9ce6590019010930,2021-03-24_08h08.31.283,CombinedMST_OA,2020.2.10,Win32,60,,,,,,,,,,,,,,,,,,SoundMST/Wind_B.wav,,1,1,OLD,,C,,,1,1,0.36875,0,98,98,98,1,,,,,,,,,,,,,,,,,,,,,,,,,,,,,,,,,,,,,,,,,,,,,,,,,,,,,,,,,,,,,,,,,,,,,,,,,,,,,,
,,,,,,,,,,,,,, 5d331b4c9ce6590019010930,2021-03-24_08h08.31.283,CombinedMST_OA,2020.2.10,Win32,60,,,,,,,,,,,,,,,,,,SoundMST/Cough_C.wav,,2,3,NEW,,C,,,2,1,0.36656,0,99,99,99,1,,,,,,,,,,,,,,,,,,,,,,,,,,,,,,,,,,,,,,,,,,,,,,,,,,,,,,,,,,,,,,,,,,,,,,,,,,,,,,
,,,,,,,,,,,,,, 5d331b4c9ce6590019010930,2021-03-24_08h08.31.283,CombinedMST_OA,2020.2.10,Win32,60,,,,,,,,,,,,,,,,,,SoundMST/ManWhistle.wav,,2,3,NEW,,C,,,2,1,0.301925,0,100,100,100,1,,,,,,,,,,,,,,,,,,,,,,,,,,,,,,,,,,,,,,,,,,,,,,,,,,,,,,,,,,,,,,,,,,,,,,,,,,,,,,
,,,,,,,,,,,,,, 5d331b4c9ce6590019010930,2021-03-24_08h08.31.283,CombinedMST_OA,2020.2.10,Win32,60,,,,,,,,,,,,,,,,,,SoundMST/Chomp_C.wav,,2,2,SIMILAR,,C,,,2,1,0.441385,0,101,101,101,1,,,,,,,,,,,,,,,,,,,,,,,,,,,,,,,,,,,,,,,,,,,,,,,,,,,,,,,,,,,,,,,,,,,,,,,,,,,,,,
,,,,,,,,,,,,,, 5d331b4c9ce6590019010930,2021-03-24_08h08.31.283,CombinedMST_OA,2020.2.10,Win32,60,,,,,,,,,,,,,,,,,,SoundMST/Siren_A.wav,,2,2,SIMILAR,,C,,,1,0,0.336725,0,102,102,102,1,,,,,,,,,,,,,,,,,,,,,,,,,,,,,,,,,,,,,,,,,,,,,,,,,,,,,,,,,,,,,,,,,,,,,,,,,,,,,,
,,,,,,,,,,,,,, 5d331b4c9ce6590019010930,2021-03-24_08h08.31.283,CombinedMST_OA,2020.2.10,Win32,60,,,,,,,,,,,,,,,,,,SoundMST/Thunder_A.wav,,2,3,NEW,,C,,,2,1,0.81153,0,103,103,103,1,,,,,,,,,,,,,,,,,,,,,,,,,,,,,,,,,,,,,,,,,,,,,,,,,,,,,,,,,,,,,,,,,,,,,,,,,,,,,,
,,,,,,,,,,,,,, 5d331b4c9ce6590019010930,2021-03-24_08h08.31.283,CombinedMST_OA,2020.2.10,Win32,60,,,,,,,,,,,,,,,,,,SoundMST/Cat_A.wav,,1,1,OLD,,C,,,1,1,0.751115,0,104,104,104,1,,,,,,,,,,,,,,,,,,,,,,,,,,,,,,,,,,,,,,,,,,,,,,,,,,,,,,,,,,,,,,,,,,,,,,,,,,,,,,
,,,,,,,,,,,,,, 5d331b4c9ce6590019010930,2021-03-24_08h08.31.283,CombinedMST_OA,2020.2.10,Win32,60,,,,,,,,,,,,,,,,,,SoundMST/Snore_C.wav,,2,3,NEW,,C,,,2,1,0.43571,0,105,105,105,1,,,,,,,,,,,,,,,,,,,,,,,,,,,,,,,,,,,,,,,,,,,,,,,,,,,,,,,,,,,,,,,,,,,,,,,,,,,,,,
,,,,,,,,,,,,,, 5d331b4c9ce6590019010930,2021-03-24_08h08.31.283,CombinedMST_OA,2020.2.10,Win32,60,,,,,,,,,,,,,,,,,,SoundMST/Cup.wav,,1,1,OLD,,C,,,1,1,0.484935,0,106,106,106,1,,,,,,,,,,,,,,,,,,,,,,,,,,,,,,,,,,,,,,,,,,,,,,,,,,,,,,,,,,,,,,,,,,,,,,,,,,,,,,
,,,,,,,,,,,,,, 5d331b4c9ce6590019010930,2021-03-24_08h08.31.283,CombinedMST_OA,2020.2.10,Win32,60,,,,,,,,,,,,,,,,,,SoundMST/Baby_F.wav,,2,3,NEW,,C,,,2,1,0.385545,0,107,107,107,1,,,,,,,,,,,,,,,,,,,,,,,,,,,,,,,,,,,,,,,,,,,,,,,,,,,,,,,,,,,,,,,,,,,,,,,,,,,,,,
,,,,,,,,,,,,,, 5d331b4c9ce6590019010930,2021-03-24_08h08.31.283,CombinedMST_OA,2020.2.10,Win32,60,,,,,,,,,,,,,,,,,,SoundMST/Droplet_B.wav,,1,1,OLD,,C,,,1,1,0.479285,0,108,108,108,1,,,,,,,,,,,,,,,,,,,,,,,,,,,,,,,,,,,,,,,,,,,,,,,,,,,,,,,,,,,,,,,,,,,,,,,,,,,,,,
,,,,,,,,,,,,,, 5d331b4c9ce6590019010930,2021-03-24_08h08.31.283,CombinedMST_OA,2020.2.10,Win32,60,,,,,,,,,,,,,,,,,,SoundMST/DialTone.wav,,2,3,NEW,,C,,,2,1,0.910865,0,109,109,109,1,,,,,,,,,,,,,,,,,,,,,,,,,,,,,,,,,,,,,,,,,,,,,,,,,,,,,,,,,,,,,,,,,,,,,,,,,,,,,,
,,,,,,,,,,,,,, 5d331b4c9ce6590019010930,2021-03-24_08h08.31.283,CombinedMST_OA,2020.2.10,Win32,60,,,,,,,,,,,,,,,,,,SoundMST/Clap_C.wav,,2,2,SIMILAR,,C,,,1,0,0.35775,0,110,110,110,1,,,,,,,,,,,,,,,,,,,,,,,,,,,,,,,,,,,,,,,,,,,,,,,,,,,,,,,,,,,,,,,,,,,,,,,,,,,,,,
,,,,,,,,,,,,,, 5d331b4c9ce6590019010930,2021-03-24_08h08.31.283,CombinedMST_OA,2020.2.10,Win32,60,,,,,,,,,,,,,,,,,,SoundMST/Heartbeat.wav,,2,3,NEW,,C,,,2,1,0.598785,0,111,111,111,1,,,,,,,,,,,,,,,,,,,,,,,,,,,,,,,,,,,,,,,,,,,,,,,,,,,,,,,,,,,,,,,,,,,,,,,,,,,,,,
,,,,,,,,,,,,,, 5d331b4c9ce6590019010930,2021-03-24_08h08.31.283,CombinedMST_OA,2020.2.10,Win32,60,,,,,,,,,,,,,,,,,,SoundMST/Guitar_B.wav,,1,1,OLD,,C,,,1,1,0.29525,0,112,112,112,1,,,,,,,,,,,,,,,,,,,,,,,,,,,,,,,,,,,,,,,,,,,,,,,,,,,,,,,,,,,,,,,,,,,,,,,,,,,,,,
,,,,,,,,,,,,,, 5d331b4c9ce6590019010930,2021-03-24_08h08.31.283,CombinedMST_OA,2020.2.10,Win32,60,,,,,,,,,,,,,,,,,,SoundMST/Typing.wav,,2,3,NEW,,C,,,2,1,0.33492,0,113,113,113,1,,,,,,,,,,,,,,,,,,,,,,,,,,,,,,,,,,,,,,,,,,,,,,,,,,,,,,,,,,,,,,,,,,,,,,,,,,,,,,
,,,,,,,,,,,,,, 5d331b4c9ce6590019010930,2021-03-24_08h08.31.283,CombinedMST_OA,2020.2.10,Win32,60,,,,,,,,,,,,,,,,,,SoundMST/Mosquito_B.wav,,1,1,OLD,,C,,,1,1,0.318595,0,114,114,114,1,,,,,,,,,,,,,,,,,,,,,,,,,,,,,,,,,,,,,,,,,,,,,,,,,,,,,,,,,,,,,,,,,,,,,,,,,,,,,,
,,,,,,,,,,,,,, 5d331b4c9ce6590019010930,2021-03-24_08h08.31.283,CombinedMST_OA,2020.2.10,Win32,60,,,,,,,,,,,,,,,,,,SoundMST/Airplane_B.wav,,2,3,NEW,,C,,,2,1,0.55561,0,115,115,115,1,,,,,,,,,,,,,,,,,,,,,,,,,,,,,,,,,,,,,,,,,,,,,,,,,,,,,,,,,,,,,,,,,,,,,,,,,,,,,,
,,,,,,,,,,,,,, 5d331b4c9ce6590019010930,2021-03-24_08h08.31.283,CombinedMST_OA,2020.2.10,Win32,60,,,,,,,,,,,,,,,,,,SoundMST/ManWhistle.wav,,1,1,OLD,,C,,,1,1,0.41866,0,116,116,116,1,,,,,,,,,,,,,,,,,,,,,,,,,,,,,,,,,,,,,,,,,,,,,,,,,,,,,,,,,,,,,,,,,,,,,,,,,,,,,,
,,,,,,,,,,,,,, 5d331b4c9ce6590019010930,2021-03-24_08h08.31.283,CombinedMST_OA,2020.2.10,Win32,60,,,,,,,,,,,,,,,,,,SoundMST/Steam.wav,,2,3,NEW,,C,,,2,1,0.56798,0,117,117,117,1,,,,,,,,,,,,,,,,,,,,,,,,,,,,,,,,,,,,,,,,,,,,,,,,,,,,,,,,,,,,,,,,,,,,,,,,,,,,,,
,,,,,,,,,,,,,, 5d331b4c9ce6590019010930,2021-03-24_08h08.31.283,CombinedMST_OA,2020.2.10,Win32,60,,,,,,,,,,,,,,,,,,SoundMST/Baby_E.wav,,2,2,SIMILAR,,C,,,1,0,0.36901,0,118,118,118,1,,,,,,,,,,,,,,,,,,,,,,,,,,,,,,,,,,,,,,,,,,,,,,,,,,,,,,,,,,,,,,,,,,,,,,,,,,,,,,
,,,,,,,,,,,,,, 5d331b4c9ce6590019010930,2021-03-24_08h08.31.283,CombinedMST_OA,2020.2.10,Win32,60,,,,,,,,,,,,,,,,,,SoundMST/Bagpipe.wav,,1,1,OLD,,C,,,1,1,0.805915,0,119,119,119,1,,,,,,,,,,,,,,,,,,,,,,,,,,,,,,,,,,,,,,,,,,,,,,,,,,,,,,,,,,,,,,,,,,,,,,,,,,,,,,
,,,,,,,,,,,,,, 5d331b4c9ce6590019010930,2021-03-24_08h08.31.283,CombinedMST_OA,2020.2.10,Win32,60,,,,,,,,,,,,,,,,,,SoundMST/Cough_E.wav,,2,2,SIMILAR,,C,,,1,0,0.43245,0,120,120,120,1,,,,,,,,,,,,,,,,,,,,,,,,,,,,,,,,,,,,,,,,,,,,,,,,,,,,,,,,,,,,,,,,,,,,,,,,,,,,,,
,,,,,,,,,,,,,, 5d331b4c9ce6590019010930,2021-03-24_08h08.31.283,CombinedMST_OA,2020.2.10,Win32,60,,,,,,,,,,,,,,,,,,SoundMST/Airplane_B.wav,,1,1,OLD,,C,,,1,1,0.34442,0,121,121,121,1,,,,,,,,,,,,,,,,,,,,,,,,,,,,,,,,,,,,,,,,,,,,,,,,,,,,,,,,,,,,,,,,,,,,,,,,,,,,,,
,,,,,,,,,,,,,, 5d331b4c9ce6590019010930,2021-03-24_08h08.31.283,CombinedMST_OA,2020.2.10,Win32,60,,,,,,,,,,,,,,,,,,SoundMST/DialTone.wav,,1,1,OLD,,C,,,1,1,0.484815,0,122,122,122,1,,,,,,,,,,,,,,,,,,,,,,,,,,,,,,,,,,,,,,,,,,,,,,,,,,,,,,,,,,,,,,,,,,,,,,,,,,,,,,
,,,,,,,,,,,,,, 5d331b4c9ce6590019010930,2021-03-24_08h08.31.283,CombinedMST_OA,2020.2.10,Win32,60,,,,,,,,,,,,,,,,,,SoundMST/Thunder_A.wav,,1,1,OLD,,C,,,1,1,0.33629,0,123,123,123,1,,,,,,,,,,,,,,,,,,,,,,,,,,,,,,,,,,,,,,,,,,,,,,,,,,,,,,,,,,,,,,,,,,,,,,,,,,,,,,
,,,,,,,,,,,,,, 5d331b4c9ce6590019010930,2021-03-24_08h08.31.283,CombinedMST_OA,2020.2.10,Win32,60,,,,,,,,,,,,,,,,,,SoundMST/Typing.wav,,1,1,OLD,,C,,,1,1,0.345325,0,124,124,124,1,,,,,,,,,,,,,,,,,,,,,,,,,,,,,,,,,,,,,,,,,,,,,,,,,,,,,,,,,,,,,,,,,,,,,,,,,,,,,,
,,,,,,,,,,,,,, 5d331b4c9ce6590019010930,2021-03-24_08h08.31.283,CombinedMST_OA,2020.2.10,Win32,60,,,,,,,,,,,,,,,,,,SoundMST/Snore_E.wav,,2,2,SIMILAR,,C,,,1,0,0.36836,0,125,125,125,1,,,,,,,,,,,,,,,,,,,,,,,,,,,,,,,,,,,,,,,,,,,,,,,,,,,,,,,,,,,,,,,,,,,,,,,,,,,,,,
,,,,,,,,,,,,,, 5d331b4c9ce6590019010930,2021-03-24_08h08.31.283,CombinedMST_OA,2020.2.10,Win32,60,,,,,,,,,,,,,,,,,,SoundMST/Heartbeat.wav,,1,1,OLD,,C,,,1,1,0.32416,0,126,126,126,1,,,,,,,,,,,,,,,,,,,,,,,,,,,,,,,,,,,,,,,,,,,,,,,,,,,,,,,,,,,,,,,,,,,,,,,,,,,,,,
,,,,,,,,,,,,,, 5d331b4c9ce6590019010930,2021-03-24_08h08.31.283,CombinedMST_OA,2020.2.10,Win32,60,,,,,,,,,,,,,,,,,,SoundMST/Steam.wav,,1,1,OLD,,C,,,1,1,0.33386,0,127,127,127,1,,,,,,,,,,,,,,,,,,,,,,,,,,,,,,,,,,,,,,,,,,,,,,,,,,,,,,,,,,,,,,,,,,,,,,,,,,,,,,
,,,,,,,,,,,,,, 5d331b4c9ce6590019010930,2021-03-24_08h08.31.283,CombinedMST_OA,2020.2.10,Win32,60,,,,,,,,,,,,,,,,,,,,,,,,,,,,,,,,,,,return,11.6956,burgers,0,0,0,0,1,,,,,,,,,,,,,,,,,,,,,,,,,,,,,,,,,,,,,,,,,,,,,,,,,,,,,,,,,,,,,,,,,,,,,,
,,,,,,,,,,,,,, 5d331b4c9ce6590019010930,2021-03-24_08h08.31.283,CombinedMST_OA,2020.2.10,Win32,60,,,,,,,,,,,,,,,,,,,,,,,,,,,,,,,,,,,,,,,,,,,0,0,0,1,1,0,1,,,,,,,,,,,,,,,,,,,,,,,,,,,,,,,,,,,,,,,,,,,,,,,,,,,,,,,,,,,,,,,
,,,,,,,,,,,,,2, 5d331b4c9ce6590019010930,2021-03-24_08h08.31.283,CombinedMST_OA,2020.2.10,Win32,60,space,33.831585,,,,,space,4.09754,,,,,,,,,Training/FO_YI_LAY.wav,,,,,,,,,,,,,,,,,,,,,,,,,,,,,,,,,space,16.06339,space,5.51385,2,1,3.397765,0,0,0,0,1,NEW,,,,,,,,,,,,,,,,,,,,,,,,,,,,,,,,,,,,,,,,,,,,,,,,,,
,,,,,,,,,,,,,1, 5d331b4c9ce6590019010930,2021-03-24_08h08.31.283,CombinedMST_OA,2020.2.10,Win32,60,,,,,,,,,,,,,,,,,Training/FO_YI_LAY.wav,,,,,,,,,,,,,,,,,,,,,,,,,,,,,,,,,,,,,2,0,0.793905,0,1,1,1,1,OLD,,,,,,,,,,,,,,,,,,,,,,,,,,,,,,,,,,,,,,,,,,,,,,,,,,
,,,,,,,,,,,,,2, 5d331b4c9ce6590019010930,2021-03-24_08h08.31.283,CombinedMST_OA,2020.2.10,Win32,60,,,,,,,,,,,,,,,,,Training/YO_BU_JAY.wav,,,,,,,,,,,,,,,,,,,,,,,,,,,,,,,,,,,,,2,1,0.795545,0,2,2,2,1,NEW,,,,,,,,,,,,,,,,,,,,,,,,,,,,,,,,,,,,,,,,,,,,,,,,,,
,,,,,,,,,,,,,2, 5d331b4c9ce6590019010930,2021-03-24_08h08.31.283,CombinedMST_OA,2020.2.10,Win32,60,,,,,,,,,,,,,,,,,Training/JAY_YO_BU.wav,,,,,,,,,,,,,,,,,,,,,,,,,,,,,,,,,,,,,2,1,0.792325,0,3,3,3,1,SIMILAR,,,,,,,,,,,,,,,,,,,,,,,,,,,,,,,,,,,,,,,,,,,,,,,,,,
,,,,,,,,,,,,,1, 5d331b4c9ce6590019010930,2021-03-24_08h08.31.283,CombinedMST_OA,2020.2.10,Win32,60,,,,,,,,,,,,,,,,,Training/FO_YI_LAY.wav,,,,,,,,,,,,,,,,,,,,,,,,,,,,,,,,,,,,,2,0,0.721795,0,4,4,4,1,OLD,,,,,,,,,,,,,,,,,,,,,,,,,,,,,,,,,,,,,,,,,,,,,,,,,,
,,,,,,,,,,,,TestWords/HO_NAY_VA.wav,, 5d331b4c9ce6590019010930,2021-03-24_08h08.31.283,CombinedMST_OA,2020.2.10,Win32,60,,,,,,,,,,,,,,,,,,,,,,,,,,,,,,,,,,,,,,,,,,,,,,,,,,,,,,,,,,,,,,,space,2.964955,2,1,1.417885,0,0,0,0,1,2,NEW,NEW,E,,,,,,,,,,,,,,,,,,,,,,,,,,,,,,,,,,,,
,,,,,,,,,,,,TestWords/LU_HAI_BO.wav,, 5d331b4c9ce6590019010930,2021-03-24_08h08.31.283,CombinedMST_OA,2020.2.10,Win32,60,,,,,,,,,,,,,,,,,,,,,,,,,,,,,,,,,,,,,,,,,,,,,,,,,,,,,,,,,,,,,,,,,2,1,0.49993,0,1,1,1,1,2,NEW,NEW,E,,,,,,,,,,,,,,,,,,,,,,,,,,,,,,,,,,,,
,,,,,,,,,,,,TestWords/GA_MU_ZI.wav,, 5d331b4c9ce6590019010930,2021-03-24_08h08.31.283,CombinedMST_OA,2020.2.10,Win32,60,,,,,,,,,,,,,,,,,,,,,,,,,,,,,,,,,,,,,,,,,,,,,,,,,,,,,,,,,,,,,,,,,2,1,0.186565,0,2,2,2,1,2,NEW,NEW,E,,,,,,,,,,,,,,,,,,,,,,,,,,,,,,,,,,,,
,,,,,,,,,,,,TestWords/BA_KAY_LI.wav,, 5d331b4c9ce6590019010930,2021-03-24_08h08.31.283,CombinedMST_OA,2020.2.10,Win32,60,,,,,,,,,,,,,,,,,,,,,,,,,,,,,,,,,,,,,,,,,,,,,,,,,,,,,,,,,,,,,,,,,2,1,0.15162,0,3,3,3,1,2,NEW,NEW,E,,,,,,,,,,,,,,,,,,,,,,,,,,,,,,,,,,,,
,,,,,,,,,,,,TestWords/DA_CHU_VAI.wav,, 5d331b4c9ce6590019010930,2021-03-24_08h08.31.283,CombinedMST_OA,2020.2.10,Win32,60,,,,,,,,,,,,,,,,,,,,,,,,,,,,,,,,,,,,,,,,,,,,,,,,,,,,,,,,,,,,,,,,,2,1,0.451925,0,4,4,4,1,2,NEW,NEW,E,,,,,,,,,,,,,,,,,,,,,,,,,,,,,,,,,,,,
,,,,,,,,,,,,TestWords/CHU_LA_PAY.wav,, 5d331b4c9ce6590019010930,2021-03-24_08h08.31.283,CombinedMST_OA,2020.2.10,Win32,60,,,,,,,,,,,,,,,,,,,,,,,,,,,,,,,,,,,,,,,,,,,,,,,,,,,,,,,,,,,,,,,,,2,1,0.468025,0,5,5,5,1,2,NEW,NEW,E,,,,,,,,,,,,,,,,,,,,,,,,,,,,,,,,,,,,
,,,,,,,,,,,,TestWords/RAY_PA_TI.wav,, 5d331b4c9ce6590019010930,2021-03-24_08h08.31.283,CombinedMST_OA,2020.2.10,Win32,60,,,,,,,,,,,,,,,,,,,,,,,,,,,,,,,,,,,,,,,,,,,,,,,,,,,,,,,,,,,,,,,,,2,1,0.535745,0,6,6,6,1,2,NEW,NEW,E,,,,,,,,,,,,,,,,,,,,,,,,,,,,,,,,,,,,
,,,,,,,,,,,,TestWords/WAI_VU_NA.wav,, 5d331b4c9ce6590019010930,2021-03-24_08h08.31.283,CombinedMST_OA,2020.2.10,Win32,60,,,,,,,,,,,,,,,,,,,,,,,,,,,,,,,,,,,,,,,,,,,,,,,,,,,,,,,,,,,,,,,,,2,1,0.80188,0,7,7,7,1,2,NEW,NEW,E,,,,,,,,,,,,,,,,,,,,,,,,,,,,,,,,,,,,
,,,,,,,,,,,,TestWords/VAI_HO_LA.wav,, 5d331b4c9ce6590019010930,2021-03-24_08h08.31.283,CombinedMST_OA,2020.2.10,Win32,60,,,,,,,,,,,,,,,,,,,,,,,,,,,,,,,,,,,,,,,,,,,,,,,,,,,,,,,,,,,,,,,,,2,1,0.40106,0,8,8,8,1,2,NEW,NEW,E,,,,,,,,,,,,,,,,,,,,,,,,,,,,,,,,,,,,
,,,,,,,,,,,,TestWords/KAY_LI_BA.wav,, 5d331b4c9ce6590019010930,2021-03-24_08h08.31.283,CombinedMST_OA,2020.2.10,Win32,60,,,,,,,,,,,,,,,,,,,,,,,,,,,,,,,,,,,,,,,,,,,,,,,,,,,,,,,,,,,,,,,,,1,0,0.549315,0,9,9,9,1,2,NEW,SIMILAR,E,,,,,,,,,,,,,,,,,,,,,,,,,,,,,,,,,,,,
,,,,,,,,,,,,TestWords/GA_MU_ZI.wav,, 5d331b4c9ce6590019010930,2021-03-24_08h08.31.283,CombinedMST_OA,2020.2.10,Win32,60,,,,,,,,,,,,,,,,,,,,,,,,,,,,,,,,,,,,,,,,,,,,,,,,,,,,,,,,,,,,,,,,,2,0,0.937165,0,10,10,10,1,1,OLD,OLD,E,,,,,,,,,,,,,,,,,,,,,,,,,,,,,,,,,,,,
,,,,,,,,,,,,TestWords/LA_ZAY_CHAI.wav,, 5d331b4c9ce6590019010930,2021-03-24_08h08.31.283,CombinedMST_OA,2020.2.10,Win32,60,,,,,,,,,,,,,,,,,,,,,,,,,,,,,,,,,,,,,,,,,,,,,,,,,,,,,,,,,,,,,,,,,2,1,0.836295,0,11,11,11,1,2,NEW,NEW,E,,,,,,,,,,,,,,,,,,,,,,,,,,,,,,,,,,,,
,,,,,,,,,,,,TestWords/RAY_PA_TI.wav,, 5d331b4c9ce6590019010930,2021-03-24_08h08.31.283,CombinedMST_OA,2020.2.10,Win32,60,,,,,,,,,,,,,,,,,,,,,,,,,,,,,,,,,,,,,,,,,,,,,,,,,,,,,,,,,,,,,,,,,1,1,0.236335,0,12,12,12,1,1,OLD,OLD,E,,,,,,,,,,,,,,,,,,,,,,,,,,,,,,,,,,,,
,,,,,,,,,,,,TestWords/WAI_NA_VU.wav,, 5d331b4c9ce6590019010930,2021-03-24_08h08.31.283,CombinedMST_OA,2020.2.10,Win32,60,,,,,,,,,,,,,,,,,,,,,,,,,,,,,,,,,,,,,,,,,,,,,,,,,,,,,,,,,,,,,,,,,1,0,0.454465,0,13,13,13,1,2,NEW,SIMILAR,E,,,,,,,,,,,,,,,,,,,,,,,,,,,,,,,,,,,,
,,,,,,,,,,,,TestWords/DAI_RU_CHI.wav,, 5d331b4c9ce6590019010930,2021-03-24_08h08.31.283,CombinedMST_OA,2020.2.10,Win32,60,,,,,,,,,,,,,,,,,,,,,,,,,,,,,,,,,,,,,,,,,,,,,,,,,,,,,,,,,,,,,,,,,2,1,0.78626,0,14,14,14,1,2,NEW,NEW,E,,,,,,,,,,,,,,,,,,,,,,,,,,,,,,,,,,,,
,,,,,,,,,,,,TestWords/KAY_BA_LI.wav,, 5d331b4c9ce6590019010930,2021-03-24_08h08.31.283,CombinedMST_OA,2020.2.10,Win32,60,,,,,,,,,,,,,,,,,,,,,,,,,,,,,,,,,,,,,,,,,,,,,,,,,,,,,,,,,,,,,,,,,1,0,0.534235,0,15,15,15,1,2,NEW,SIMILAR,E,,,,,,,,,,,,,,,,,,,,,,,,,,,,,,,,,,,,
,,,,,,,,,,,,TestWords/GA_MU_ZI.wav,, 5d331b4c9ce6590019010930,2021-03-24_08h08.31.283,CombinedMST_OA,2020.2.10,Win32,60,,,,,,,,,,,,,,,,,,,,,,,,,,,,,,,,,,,,,,,,,,,,,,,,,,,,,,,,,,,,,,,,,1,1,0.36198,0,16,16,16,1,1,OLD,OLD,E,,,,,,,,,,,,,,,,,,,,,,,,,,,,,,,,,,,,
,,,,,,,,,,,,TestWords/VU_NA_WAI.wav,, 5d331b4c9ce6590019010930,2021-03-24_08h08.31.283,CombinedMST_OA,2020.2.10,Win32,60,,,,,,,,,,,,,,,,,,,,,,,,,,,,,,,,,,,,,,,,,,,,,,,,,,,,,,,,,,,,,,,,,2,1,0.51845,0,17,17,17,1,2,NEW,SIMILAR,E,,,,,,,,,,,,,,,,,,,,,,,,,,,,,,,,,,,,
,,,,,,,,,,,,TestWords/RAY_PA_TI.wav,, 5d331b4c9ce6590019010930,2021-03-24_08h08.31.283,CombinedMST_OA,2020.2.10,Win32,60,,,,,,,,,,,,,,,,,,,,,,,,,,,,,,,,,,,,,,,,,,,,,,,,,,,,,,,,,,,,,,,,,1,1,0.335105,0,18,18,18,1,1,OLD,OLD,E,,,,,,,,,,,,,,,,,,,,,,,,,,,,,,,,,,,,
,,,,,,,,,,,,TestWords/LI_BA_KAY.wav,, 5d331b4c9ce6590019010930,2021-03-24_08h08.31.283,CombinedMST_OA,2020.2.10,Win32,60,,,,,,,,,,,,,,,,,,,,,,,,,,,,,,,,,,,,,,,,,,,,,,,,,,,,,,,,,,,,,,,,,2,1,0.679915,0,19,19,19,1,2,NEW,SIMILAR,E,,,,,,,,,,,,,,,,,,,,,,,,,,,,,,,,,,,,
,,,,,,,,,,,,TestWords/DAY_MO_PU.wav,, 5d331b4c9ce6590019010930,2021-03-24_08h08.31.283,CombinedMST_OA,2020.2.10,Win32,60,,,,,,,,,,,,,,,,,,,,,,,,,,,,,,,,,,,,,,,,,,,,,,,,,,,,,,,,,,,,,,,,,2,1,1.151195,0,20,20,20,1,2,NEW,NEW,E,,,,,,,,,,,,,,,,,,,,,,,,,,,,,,,,,,,,
,,,,,,,,,,,,TestWords/DAI_RU_CHI.wav,, 5d331b4c9ce6590019010930,2021-03-24_08h08.31.283,CombinedMST_OA,2020.2.10,Win32,60,,,,,,,,,,,,,,,,,,,,,,,,,,,,,,,,,,,,,,,,,,,,,,,,,,,,,,,,,,,,,,,,,1,1,0.41704,0,21,21,21,1,1,OLD,OLD,E,,,,,,,,,,,,,,,,,,,,,,,,,,,,,,,,,,,,
,,,,,,,,,,,,TestWords/NU_CHAY_SO.wav,, 5d331b4c9ce6590019010930,2021-03-24_08h08.31.283,CombinedMST_OA,2020.2.10,Win32,60,,,,,,,,,,,,,,,,,,,,,,,,,,,,,,,,,,,,,,,,,,,,,,,,,,,,,,,,,,,,,,,,,2,1,0.60153,0,22,22,22,1,2,NEW,NEW,E,,,,,,,,,,,,,,,,,,,,,,,,,,,,,,,,,,,,
,,,,,,,,,,,,TestWords/VU_WAI_NA.wav,, 5d331b4c9ce6590019010930,2021-03-24_08h08.31.283,CombinedMST_OA,2020.2.10,Win32,60,,,,,,,,,,,,,,,,,,,,,,,,,,,,,,,,,,,,,,,,,,,,,,,,,,,,,,,,,,,,,,,,,1,0,1.069985,0,23,23,23,1,2,NEW,SIMILAR,E,,,,,,,,,,,,,,,,,,,,,,,,,,,,,,,,,,,,
,,,,,,,,,,,,TestWords/GA_MU_ZI.wav,, 5d331b4c9ce6590019010930,2021-03-24_08h08.31.283,CombinedMST_OA,2020.2.10,Win32,60,,,,,,,,,,,,,,,,,,,,,,,,,,,,,,,,,,,,,,,,,,,,,,,,,,,,,,,,,,,,,,,,,1,1,1.084205,0,24,24,24,1,1,OLD,OLD,E,,,,,,,,,,,,,,,,,,,,,,,,,,,,,,,,,,,,
,,,,,,,,,,,,TestWords/RAY_PA_TI.wav,, 5d331b4c9ce6590019010930,2021-03-24_08h08.31.283,CombinedMST_OA,2020.2.10,Win32,60,,,,,,,,,,,,,,,,,,,,,,,,,,,,,,,,,,,,,,,,,,,,,,,,,,,,,,,,,,,,,,,,,1,1,1.149235,0,25,25,25,1,1,OLD,OLD,E,,,,,,,,,,,,,,,,,,,,,,,,,,,,,,,,,,,,
,,,,,,,,,,,,TestWords/KAI_LAY_TA.wav,, 5d331b4c9ce6590019010930,2021-03-24_08h08.31.283,CombinedMST_OA,2020.2.10,Win32,60,,,,,,,,,,,,,,,,,,,,,,,,,,,,,,,,,,,,,,,,,,,,,,,,,,,,,,,,,,,,,,,,,2,1,0.268425,0,26,26,26,1,2,NEW,NEW,E,,,,,,,,,,,,,,,,,,,,,,,,,,,,,,,,,,,,
,,,,,,,,,,,,TestWords/TAI_SA_GI.wav,, 5d331b4c9ce6590019010930,2021-03-24_08h08.31.283,CombinedMST_OA,2020.2.10,Win32,60,,,,,,,,,,,,,,,,,,,,,,,,,,,,,,,,,,,,,,,,,,,,,,,,,,,,,,,,,,,,,,,,,2,1,0.301435,0,27,27,27,1,2,NEW,NEW,E,,,,,,,,,,,,,,,,,,,,,,,,,,,,,,,,,,,,
,,,,,,,,,,,,TestWords/BA_LI_KAY.wav,, 5d331b4c9ce6590019010930,2021-03-24_08h08.31.283,CombinedMST_OA,2020.2.10,Win32,60,,,,,,,,,,,,,,,,,,,,,,,,,,,,,,,,,,,,,,,,,,,,,,,,,,,,,,,,,,,,,,,,,2,1,2.335295,0,28,28,28,1,2,NEW,SIMILAR,E,,,,,,,,,,,,,,,,,,,,,,,,,,,,,,,,,,,,
,,,,,,,,,,,,TestWords/KO_SU_FAI.wav,, 5d331b4c9ce6590019010930,2021-03-24_08h08.31.283,CombinedMST_OA,2020.2.10,Win32,60,,,,,,,,,,,,,,,,,,,,,,,,,,,,,,,,,,,,,,,,,,,,,,,,,,,,,,,,,,,,,,,,,2,1,0.650435,0,29,29,29,1,2,NEW,NEW,E,,,,,,,,,,,,,,,,,,,,,,,,,,,,,,,,,,,,
,,,,,,,,,,,,TestWords/MO_DAY_PU.wav,, 5d331b4c9ce6590019010930,2021-03-24_08h08.31.283,CombinedMST_OA,2020.2.10,Win32,60,,,,,,,,,,,,,,,,,,,,,,,,,,,,,,,,,,,,,,,,,,,,,,,,,,,,,,,,,,,,,,,,,2,1,0.99338,0,30,30,30,1,2,NEW,SIMILAR,E,,,,,,,,,,,,,,,,,,,,,,,,,,,,,,,,,,,,
,,,,,,,,,,,,TestWords/DAI_RU_CHI.wav,, 5d331b4c9ce6590019010930,2021-03-24_08h08.31.283,CombinedMST_OA,2020.2.10,Win32,60,,,,,,,,,,,,,,,,,,,,,,,,,,,,,,,,,,,,,,,,,,,,,,,,,,,,,,,,,,,,,,,,,1,1,0.617915,0,31,31,31,1,1,OLD,OLD,E,,,,,,,,,,,,,,,,,,,,,,,,,,,,,,,,,,,,
,,,,,,,,,,,,TestWords/NA_VU_WAI.wav,, 5d331b4c9ce6590019010930,2021-03-24_08h08.31.283,CombinedMST_OA,2020.2.10,Win32,60,,,,,,,,,,,,,,,,,,,,,,,,,,,,,,,,,,,,,,,,,,,,,,,,,,,,,,,,,,,,,,,,,1,0,0.927585,0,32,32,32,1,2,NEW,SIMILAR,E,,,,,,,,,,,,,,,,,,,,,,,,,,,,,,,,,,,,
,,,,,,,,,,,,TestWords/KAI_LAY_TA.wav,, 5d331b4c9ce6590019010930,2021-03-24_08h08.31.283,CombinedMST_OA,2020.2.10,Win32,60,,,,,,,,,,,,,,,,,,,,,,,,,,,,,,,,,,,,,,,,,,,,,,,,,,,,,,,,,,,,,,,,,2,0,3.417575,0,33,33,33,1,1,OLD,OLD,E,,,,,,,,,,,,,,,,,,,,,,,,,,,,,,,,,,,,
,,,,,,,,,,,,TestWords/RAY_PA_TI.wav,, 5d331b4c9ce6590019010930,2021-03-24_08h08.31.283,CombinedMST_OA,2020.2.10,Win32,60,,,,,,,,,,,,,,,,,,,,,,,,,,,,,,,,,,,,,,,,,,,,,,,,,,,,,,,,,,,,,,,,,1,1,1.339935,0,34,34,34,1,1,OLD,OLD,E,,,,,,,,,,,,,,,,,,,,,,,,,,,,,,,,,,,,
,,,,,,,,,,,,TestWords/GA_MU_ZI.wav,, 5d331b4c9ce6590019010930,2021-03-24_08h08.31.283,CombinedMST_OA,2020.2.10,Win32,60,,,,,,,,,,,,,,,,,,,,,,,,,,,,,,,,,,,,,,,,,,,,,,,,,,,,,,,,,,,,,,,,,1,1,1.085235,0,35,35,35,1,1,OLD,OLD,E,,,,,,,,,,,,,,,,,,,,,,,,,,,,,,,,,,,,
,,,,,,,,,,,,TestWords/GI_SA_TAI.wav,, 5d331b4c9ce6590019010930,2021-03-24_08h08.31.283,CombinedMST_OA,2020.2.10,Win32,60,,,,,,,,,,,,,,,,,,,,,,,,,,,,,,,,,,,,,,,,,,,,,,,,,,,,,,,,,,,,,,,,,2,1,0.417275,0,36,36,36,1,2,NEW,SIMILAR,E,,,,,,,,,,,,,,,,,,,,,,,,,,,,,,,,,,,,
,,,,,,,,,,,,TestWords/KO_SU_FAI.wav,, 5d331b4c9ce6590019010930,2021-03-24_08h08.31.283,CombinedMST_OA,2020.2.10,Win32,60,,,,,,,,,,,,,,,,,,,,,,,,,,,,,,,,,,,,,,,,,,,,,,,,,,,,,,,,,,,,,,,,,2,0,0.518415,0,37,37,37,1,1,OLD,OLD,E,,,,,,,,,,,,,,,,,,,,,,,,,,,,,,,,,,,,
,,,,,,,,,,,,TestWords/LI_KAY_BA.wav,, 5d331b4c9ce6590019010930,2021-03-24_08h08.31.283,CombinedMST_OA,2020.2.10,Win32,60,,,,,,,,,,,,,,,,,,,,,,,,,,,,,,,,,,,,,,,,,,,,,,,,,,,,,,,,,,,,,,,,,2,1,0.2354,0,38,38,38,1,2,NEW,SIMILAR,E,,,,,,,,,,,,,,,,,,,,,,,,,,,,,,,,,,,,
,,,,,,,,,,,,TestWords/NA_WAI_VU.wav,, 5d331b4c9ce6590019010930,2021-03-24_08h08.31.283,CombinedMST_OA,2020.2.10,Win32,60,,,,,,,,,,,,,,,,,,,,,,,,,,,,,,,,,,,,,,,,,,,,,,,,,,,,,,,,,,,,,,,,,1,0,0.656185,0,39,39,39,1,2,NEW,SIMILAR,E,,,,,,,,,,,,,,,,,,,,,,,,,,,,,,,,,,,,
,,,,,,,,,,,,TestWords/KAI_LAY_TA.wav,, 5d331b4c9ce6590019010930,2021-03-24_08h08.31.283,CombinedMST_OA,2020.2.10,Win32,60,,,,,,,,,,,,,,,,,,,,,,,,,,,,,,,,,,,,,,,,,,,,,,,,,,,,,,,,,,,,,,,,,1,1,0.226675,0,40,40,40,1,1,OLD,OLD,E,,,,,,,,,,,,,,,,,,,,,,,,,,,,,,,,,,,,
,,,,,,,,,,,,TestWords/RAY_PA_TI.wav,, 5d331b4c9ce6590019010930,2021-03-24_08h08.31.283,CombinedMST_OA,2020.2.10,Win32,60,,,,,,,,,,,,,,,,,,,,,,,,,,,,,,,,,,,,,,,,,,,,,,,,,,,,,,,,,,,,,,,,,1,1,0.583885,0,41,41,41,1,1,OLD,OLD,E,,,,,,,,,,,,,,,,,,,,,,,,,,,,,,,,,,,,
,,,,,,,,,,,,TestWords/PU_DAY_MO.wav,, 5d331b4c9ce6590019010930,2021-03-24_08h08.31.283,CombinedMST_OA,2020.2.10,Win32,60,,,,,,,,,,,,,,,,,,,,,,,,,,,,,,,,,,,,,,,,,,,,,,,,,,,,,,,,,,,,,,,,,2,1,0.567555,0,42,42,42,1,2,NEW,SIMILAR,E,,,,,,,,,,,,,,,,,,,,,,,,,,,,,,,,,,,,
,,,,,,,,,,,,TestWords/GA_MU_ZI.wav,, 5d331b4c9ce6590019010930,2021-03-24_08h08.31.283,CombinedMST_OA,2020.2.10,Win32,60,,,,,,,,,,,,,,,,,,,,,,,,,,,,,,,,,,,,,,,,,,,,,,,,,,,,,,,,,,,,,,,,,1,1,0.452665,0,43,43,43,1,1,OLD,OLD,E,,,,,,,,,,,,,,,,,,,,,,,,,,,,,,,,,,,,
,,,,,,,,,,,,TestWords/DAI_RU_CHI.wav,, 5d331b4c9ce6590019010930,2021-03-24_08h08.31.283,CombinedMST_OA,2020.2.10,Win32,60,,,,,,,,,,,,,,,,,,,,,,,,,,,,,,,,,,,,,,,,,,,,,,,,,,,,,,,,,,,,,,,,,1,1,0.949715,0,44,44,44,1,1,OLD,OLD,E,,,,,,,,,,,,,,,,,,,,,,,,,,,,,,,,,,,,
,,,,,,,,,,,,TestWords/GI_TAI_SA.wav,, 5d331b4c9ce6590019010930,2021-03-24_08h08.31.283,CombinedMST_OA,2020.2.10,Win32,60,,,,,,,,,,,,,,,,,,,,,,,,,,,,,,,,,,,,,,,,,,,,,,,,,,,,,,,,,,,,,,,,,2,1,0.23397,0,45,45,45,1,2,NEW,SIMILAR,E,,,,,,,,,,,,,,,,,,,,,,,,,,,,,,,,,,,,
,,,,,,,,,,,,TestWords/KO_SU_FAI.wav,, 5d331b4c9ce6590019010930,2021-03-24_08h08.31.283,CombinedMST_OA,2020.2.10,Win32,60,,,,,,,,,,,,,,,,,,,,,,,,,,,,,,,,,,,,,,,,,,,,,,,,,,,,,,,,,,,,,,,,,2,0,2.404465,0,46,46,46,1,1,OLD,OLD,E,,,,,,,,,,,,,,,,,,,,,,,,,,,,,,,,,,,,
,,,,,,,,,,,,TestWords/WAI_RO_JU.wav,, 5d331b4c9ce6590019010930,2021-03-24_08h08.31.283,CombinedMST_OA,2020.2.10,Win32,60,,,,,,,,,,,,,,,,,,,,,,,,,,,,,,,,,,,,,,,,,,,,,,,,,,,,,,,,,,,,,,,,,2,1,0.96852,0,47,47,47,1,2,NEW,NEW,E,,,,,,,,,,,,,,,,,,,,,,,,,,,,,,,,,,,,
,,,,,,,,,,,,TestWords/KAI_LAY_TA.wav,, 5d331b4c9ce6590019010930,2021-03-24_08h08.31.283,CombinedMST_OA,2020.2.10,Win32,60,,,,,,,,,,,,,,,,,,,,,,,,,,,,,,,,,,,,,,,,,,,,,,,,,,,,,,,,,,,,,,,,,1,1,0.31821,0,48,48,48,1,1,OLD,OLD,E,,,,,,,,,,,,,,,,,,,,,,,,,,,,,,,,,,,,
,,,,,,,,,,,,TestWords/DAI_RU_CHI.wav,, 5d331b4c9ce6590019010930,2021-03-24_08h08.31.283,CombinedMST_OA,2020.2.10,Win32,60,,,,,,,,,,,,,,,,,,,,,,,,,,,,,,,,,,,,,,,,,,,,,,,,,,,,,,,,,,,,,,,,,1,1,0.649765,0,49,49,49,1,1,OLD,OLD,E,,,,,,,,,,,,,,,,,,,,,,,,,,,,,,,,,,,,
,,,,,,,,,,,,TestWords/RAY_PA_TI.wav,, 5d331b4c9ce6590019010930,2021-03-24_08h08.31.283,CombinedMST_OA,2020.2.10,Win32,60,,,,,,,,,,,,,,,,,,,,,,,,,,,,,,,,,,,,,,,,,,,,,,,,,,,,,,,,,,,,,,,,,1,1,0.66749,0,50,50,50,1,1,OLD,OLD,E,,,,,,,,,,,,,,,,,,,,,,,,,,,,,,,,,,,,
,,,,,,,,,,,,TestWords/SA_TAI_GI.wav,, 5d331b4c9ce6590019010930,2021-03-24_08h08.31.283,CombinedMST_OA,2020.2.10,Win32,60,,,,,,,,,,,,,,,,,,,,,,,,,,,,,,,,,,,,,,,,,,,,,,,,,,,,,,,,,,,,,,,,,2,1,0.38642,0,51,51,51,1,2,NEW,SIMILAR,E,,,,,,,,,,,,,,,,,,,,,,,,,,,,,,,,,,,,
,,,,,,,,,,,,TestWords/KO_SU_FAI.wav,, 5d331b4c9ce6590019010930,2021-03-24_08h08.31.283,CombinedMST_OA,2020.2.10,Win32,60,,,,,,,,,,,,,,,,,,,,,,,,,,,,,,,,,,,,,,,,,,,,,,,,,,,,,,,,,,,,,,,,,1,1,0.590815,0,52,52,52,1,1,OLD,OLD,E,,,,,,,,,,,,,,,,,,,,,,,,,,,,,,,,,,,,
,,,,,,,,,,,,TestWords/PU_MO_DAY.wav,, 5d331b4c9ce6590019010930,2021-03-24_08h08.31.283,CombinedMST_OA,2020.2.10,Win32,60,,,,,,,,,,,,,,,,,,,,,,,,,,,,,,,,,,,,,,,,,,,,,,,,,,,,,,,,,,,,,,,,,1,0,0.45159,0,53,53,53,1,2,NEW,SIMILAR,E,,,,,,,,,,,,,,,,,,,,,,,,,,,,,,,,,,,,
,,,,,,,,,,,,TestWords/GA_MU_ZI.wav,, 5d331b4c9ce6590019010930,2021-03-24_08h08.31.283,CombinedMST_OA,2020.2.10,Win32,60,,,,,,,,,,,,,,,,,,,,,,,,,,,,,,,,,,,,,,,,,,,,,,,,,,,,,,,,,,,,,,,,,1,1,2.89164,0,54,54,54,1,1,OLD,OLD,E,,,,,,,,,,,,,,,,,,,,,,,,,,,,,,,,,,,,
,,,,,,,,,,,,TestWords/KAI_LAY_TA.wav,, 5d331b4c9ce6590019010930,2021-03-24_08h08.31.283,CombinedMST_OA,2020.2.10,Win32,60,,,,,,,,,,,,,,,,,,,,,,,,,,,,,,,,,,,,,,,,,,,,,,,,,,,,,,,,,,,,,,,,,1,1,1.052085,0,55,55,55,1,1,OLD,OLD,E,,,,,,,,,,,,,,,,,,,,,,,,,,,,,,,,,,,,
,,,,,,,,,,,,TestWords/SA_GI_TAI.wav,, 5d331b4c9ce6590019010930,2021-03-24_08h08.31.283,CombinedMST_OA,2020.2.10,Win32,60,,,,,,,,,,,,,,,,,,,,,,,,,,,,,,,,,,,,,,,,,,,,,,,,,,,,,,,,,,,,,,,,,2,1,0.4633,0,56,56,56,1,2,NEW,SIMILAR,E,,,,,,,,,,,,,,,,,,,,,,,,,,,,,,,,,,,,
,,,,,,,,,,,,TestWords/RAY_PA_TI.wav,, 5d331b4c9ce6590019010930,2021-03-24_08h08.31.283,CombinedMST_OA,2020.2.10,Win32,60,,,,,,,,,,,,,,,,,,,,,,,,,,,,,,,,,,,,,,,,,,,,,,,,,,,,,,,,,,,,,,,,,1,1,0.77225,0,57,57,57,1,1,OLD,OLD,E,,,,,,,,,,,,,,,,,,,,,,,,,,,,,,,,,,,,
,,,,,,,,,,,,TestWords/DAI_RU_CHI.wav,, 5d331b4c9ce6590019010930,2021-03-24_08h08.31.283,CombinedMST_OA,2020.2.10,Win32,60,,,,,,,,,,,,,,,,,,,,,,,,,,,,,,,,,,,,,,,,,,,,,,,,,,,,,,,,,,,,,,,,,1,1,0.385645,0,58,58,58,1,1,OLD,OLD,E,,,,,,,,,,,,,,,,,,,,,,,,,,,,,,,,,,,,
,,,,,,,,,,,,TestWords/KO_SU_FAI.wav,, 5d331b4c9ce6590019010930,2021-03-24_08h08.31.283,CombinedMST_OA,2020.2.10,Win32,60,,,,,,,,,,,,,,,,,,,,,,,,,,,,,,,,,,,,,,,,,,,,,,,,,,,,,,,,,,,,,,,,,1,1,0.488765,0,59,59,59,1,1,OLD,OLD,E,,,,,,,,,,,,,,,,,,,,,,,,,,,,,,,,,,,,
,,,,,,,,,,,,TestWords/ZO_RAI_FU.wav,, 5d331b4c9ce6590019010930,2021-03-24_08h08.31.283,CombinedMST_OA,2020.2.10,Win32,60,,,,,,,,,,,,,,,,,,,,,,,,,,,,,,,,,,,,,,,,,,,,,,,,,,,,,,,,,,,,,,,,,2,1,1.48192,0,60,60,60,1,2,NEW,NEW,E,,,,,,,,,,,,,,,,,,,,,,,,,,,,,,,,,,,,
,,,,,,,,,,,,TestWords/KAI_LAY_TA.wav,, 5d331b4c9ce6590019010930,2021-03-24_08h08.31.283,CombinedMST_OA,2020.2.10,Win32,60,,,,,,,,,,,,,,,,,,,,,,,,,,,,,,,,,,,,,,,,,,,,,,,,,,,,,,,,,,,,,,,,,1,1,0.459515,0,61,61,61,1,1,OLD,OLD,E,,,,,,,,,,,,,,,,,,,,,,,,,,,,,,,,,,,,
,,,,,,,,,,,,TestWords/GA_MU_ZI.wav,, 5d331b4c9ce6590019010930,2021-03-24_08h08.31.283,CombinedMST_OA,2020.2.10,Win32,60,,,,,,,,,,,,,,,,,,,,,,,,,,,,,,,,,,,,,,,,,,,,,,,,,,,,,,,,,,,,,,,,,1,1,0.418805,0,62,62,62,1,1,OLD,OLD,E,,,,,,,,,,,,,,,,,,,,,,,,,,,,,,,,,,,,
,,,,,,,,,,,,TestWords/TAI_GI_SA.wav,, 5d331b4c9ce6590019010930,2021-03-24_08h08.31.283,CombinedMST_OA,2020.2.10,Win32,60,,,,,,,,,,,,,,,,,,,,,,,,,,,,,,,,,,,,,,,,,,,,,,,,,,,,,,,,,,,,,,,,,2,1,3.60922,0,63,63,63,1,2,NEW,SIMILAR,E,,,,,,,,,,,,,,,,,,,,,,,,,,,,,,,,,,,,
,,,,,,,,,,,,TestWords/RAY_PA_TI.wav,, 5d331b4c9ce6590019010930,2021-03-24_08h08.31.283,CombinedMST_OA,2020.2.10,Win32,60,,,,,,,,,,,,,,,,,,,,,,,,,,,,,,,,,,,,,,,,,,,,,,,,,,,,,,,,,,,,,,,,,1,1,0.81984,0,64,64,64,1,1,OLD,OLD,E,,,,,,,,,,,,,,,,,,,,,,,,,,,,,,,,,,,,
,,,,,,,,,,,,TestWords/DAY_PU_MO.wav,, 5d331b4c9ce6590019010930,2021-03-24_08h08.31.283,CombinedMST_OA,2020.2.10,Win32,60,,,,,,,,,,,,,,,,,,,,,,,,,,,,,,,,,,,,,,,,,,,,,,,,,,,,,,,,,,,,,,,,,2,1,0.615825,0,65,65,65,1,2,NEW,SIMILAR,E,,,,,,,,,,,,,,,,,,,,,,,,,,,,,,,,,,,,
,,,,,,,,,,,,TestWords/KO_SU_FAI.wav,, 5d331b4c9ce6590019010930,2021-03-24_08h08.31.283,CombinedMST_OA,2020.2.10,Win32,60,,,,,,,,,,,,,,,,,,,,,,,,,,,,,,,,,,,,,,,,,,,,,,,,,,,,,,,,,,,,,,,,,1,1,0.498375,0,66,66,66,1,1,OLD,OLD,E,,,,,,,,,,,,,,,,,,,,,,,,,,,,,,,,,,,,
,,,,,,,,,,,,TestWords/DAI_RU_CHI.wav,, 5d331b4c9ce6590019010930,2021-03-24_08h08.31.283,CombinedMST_OA,2020.2.10,Win32,60,,,,,,,,,,,,,,,,,,,,,,,,,,,,,,,,,,,,,,,,,,,,,,,,,,,,,,,,,,,,,,,,,1,1,1.03158,0,67,67,67,1,1,OLD,OLD,E,,,,,,,,,,,,,,,,,,,,,,,,,,,,,,,,,,,,
,,,,,,,,,,,,TestWords/KAI_LAY_TA.wav,, 5d331b4c9ce6590019010930,2021-03-24_08h08.31.283,CombinedMST_OA,2020.2.10,Win32,60,,,,,,,,,,,,,,,,,,,,,,,,,,,,,,,,,,,,,,,,,,,,,,,,,,,,,,,,,,,,,,,,,1,1,2.75288,0,68,68,68,1,1,OLD,OLD,E,,,,,,,,,,,,,,,,,,,,,,,,,,,,,,,,,,,,
,,,,,,,,,,,,TestWords/SI_VAI_CHU.wav,, 5d331b4c9ce6590019010930,2021-03-24_08h08.31.283,CombinedMST_OA,2020.2.10,Win32,60,,,,,,,,,,,,,,,,,,,,,,,,,,,,,,,,,,,,,,,,,,,,,,,,,,,,,,,,,,,,,,,,,2,1,0.601875,0,69,69,69,1,2,NEW,NEW,E,,,,,,,,,,,,,,,,,,,,,,,,,,,,,,,,,,,,
,,,,,,,,,,,,TestWords/GA_MU_ZI.wav,, 5d331b4c9ce6590019010930,2021-03-24_08h08.31.283,CombinedMST_OA,2020.2.10,Win32,60,,,,,,,,,,,,,,,,,,,,,,,,,,,,,,,,,,,,,,,,,,,,,,,,,,,,,,,,,,,,,,,,,2,0,0.86834,0,70,70,70,1,1,OLD,OLD,E,,,,,,,,,,,,,,,,,,,,,,,,,,,,,,,,,,,,
,,,,,,,,,,,,TestWords/KO_SU_FAI.wav,, 5d331b4c9ce6590019010930,2021-03-24_08h08.31.283,CombinedMST_OA,2020.2.10,Win32,60,,,,,,,,,,,,,,,,,,,,,,,,,,,,,,,,,,,,,,,,,,,,,,,,,,,,,,,,,,,,,,,,,1,1,0.55192,0,71,71,71,1,1,OLD,OLD,E,,,,,,,,,,,,,,,,,,,,,,,,,,,,,,,,,,,,
,,,,,,,,,,,,TestWords/RAI_FU_ZO.wav,, 5d331b4c9ce6590019010930,2021-03-24_08h08.31.283,CombinedMST_OA,2020.2.10,Win32,60,,,,,,,,,,,,,,,,,,,,,,,,,,,,,,,,,,,,,,,,,,,,,,,,,,,,,,,,,,,,,,,,,2,1,0.35231,0,72,72,72,1,2,NEW,SIMILAR,E,,,,,,,,,,,,,,,,,,,,,,,,,,,,,,,,,,,,
,,,,,,,,,,,,TestWords/KAI_LAY_TA.wav,, 5d331b4c9ce6590019010930,2021-03-24_08h08.31.283,CombinedMST_OA,2020.2.10,Win32,60,,,,,,,,,,,,,,,,,,,,,,,,,,,,,,,,,,,,,,,,,,,,,,,,,,,,,,,,,,,,,,,,,1,1,0.499815,0,73,73,73,1,1,OLD,OLD,E,,,,,,,,,,,,,,,,,,,,,,,,,,,,,,,,,,,,
,,,,,,,,,,,,TestWords/RAY_PA_TI.wav,, 5d331b4c9ce6590019010930,2021-03-24_08h08.31.283,CombinedMST_OA,2020.2.10,Win32,60,,,,,,,,,,,,,,,,,,,,,,,,,,,,,,,,,,,,,,,,,,,,,,,,,,,,,,,,,,,,,,,,,1,1,0.575205,0,74,74,74,1,1,OLD,OLD,E,,,,,,,,,,,,,,,,,,,,,,,,,,,,,,,,,,,,
,,,,,,,,,,,,TestWords/DAI_RU_CHI.wav,, 5d331b4c9ce6590019010930,2021-03-24_08h08.31.283,CombinedMST_OA,2020.2.10,Win32,60,,,,,,,,,,,,,,,,,,,,,,,,,,,,,,,,,,,,,,,,,,,,,,,,,,,,,,,,,,,,,,,,,1,1,2.19644,0,75,75,75,1,1,OLD,OLD,E,,,,,,,,,,,,,,,,,,,,,,,,,,,,,,,,,,,,
,,,,,,,,,,,,TestWords/MO_PU_DAY.wav,, 5d331b4c9ce6590019010930,2021-03-24_08h08.31.283,CombinedMST_OA,2020.2.10,Win32,60,,,,,,,,,,,,,,,,,,,,,,,,,,,,,,,,,,,,,,,,,,,,,,,,,,,,,,,,,,,,,,,,,2,1,0.49935,0,76,76,76,1,2,NEW,SIMILAR,E,,,,,,,,,,,,,,,,,,,,,,,,,,,,,,,,,,,,
,,,,,,,,,,,,TestWords/GA_MU_ZI.wav,, 5d331b4c9ce6590019010930,2021-03-24_08h08.31.283,CombinedMST_OA,2020.2.10,Win32,60,,,,,,,,,,,,,,,,,,,,,,,,,,,,,,,,,,,,,,,,,,,,,,,,,,,,,,,,,,,,,,,,,2,0,0.847395,0,77,77,77,1,1,OLD,OLD,E,,,,,,,,,,,,,,,,,,,,,,,,,,,,,,,,,,,,
,,,,,,,,,,,,TestWords/KO_SU_FAI.wav,, 5d331b4c9ce6590019010930,2021-03-24_08h08.31.283,CombinedMST_OA,2020.2.10,Win32,60,,,,,,,,,,,,,,,,,,,,,,,,,,,,,,,,,,,,,,,,,,,,,,,,,,,,,,,,,,,,,,,,,1,1,0.384775,0,78,78,78,1,1,OLD,OLD,E,,,,,,,,,,,,,,,,,,,,,,,,,,,,,,,,,,,,
,,,,,,,,,,,,TestWords/NO_WA_BAY.wav,, 5d331b4c9ce6590019010930,2021-03-24_08h08.31.283,CombinedMST_OA,2020.2.10,Win32,60,,,,,,,,,,,,,,,,,,,,,,,,,,,,,,,,,,,,,,,,,,,,,,,,,,,,,,,,,,,,,,,,,2,1,0.568655,0,79,79,79,1,2,NEW,NEW,E,,,,,,,,,,,,,,,,,,,,,,,,,,,,,,,,,,,,
,,,,,,,,,,,,TestWords/KAI_LAY_TA.wav,, 5d331b4c9ce6590019010930,2021-03-24_08h08.31.283,CombinedMST_OA,2020.2.10,Win32,60,,,,,,,,,,,,,,,,,,,,,,,,,,,,,,,,,,,,,,,,,,,,,,,,,,,,,,,,,,,,,,,,,1,1,0.618375,0,80,80,80,1,1,OLD,OLD,E,,,,,,,,,,,,,,,,,,,,,,,,,,,,,,,,,,,,
,,,,,,,,,,,,TestWords/RAY_PA_TI.wav,, 5d331b4c9ce6590019010930,2021-03-24_08h08.31.283,CombinedMST_OA,2020.2.10,Win32,60,,,,,,,,,,,,,,,,,,,,,,,,,,,,,,,,,,,,,,,,,,,,,,,,,,,,,,,,,,,,,,,,,1,1,0.650175,0,81,81,81,1,1,OLD,OLD,E,,,,,,,,,,,,,,,,,,,,,,,,,,,,,,,,,,,,
,,,,,,,,,,,,TestWords/RAI_ZO_FU.wav,, 5d331b4c9ce6590019010930,2021-03-24_08h08.31.283,CombinedMST_OA,2020.2.10,Win32,60,,,,,,,,,,,,,,,,,,,,,,,,,,,,,,,,,,,,,,,,,,,,,,,,,,,,,,,,,,,,,,,,,2,1,3.73524,0,82,82,82,1,2,NEW,SIMILAR,E,,,,,,,,,,,,,,,,,,,,,,,,,,,,,,,,,,,,
,,,,,,,,,,,,TestWords/DAI_RU_CHI.wav,, 5d331b4c9ce6590019010930,2021-03-24_08h08.31.283,CombinedMST_OA,2020.2.10,Win32,60,,,,,,,,,,,,,,,,,,,,,,,,,,,,,,,,,,,,,,,,,,,,,,,,,,,,,,,,,,,,,,,,,1,1,0.45196,0,83,83,83,1,1,OLD,OLD,E,,,,,,,,,,,,,,,,,,,,,,,,,,,,,,,,,,,,
,,,,,,,,,,,,TestWords/HA_SI_JAI.wav,, 5d331b4c9ce6590019010930,2021-03-24_08h08.31.283,CombinedMST_OA,2020.2.10,Win32,60,,,,,,,,,,,,,,,,,,,,,,,,,,,,,,,,,,,,,,,,,,,,,,,,,,,,,,,,,,,,,,,,,2,1,0.61916,0,84,84,84,1,2,NEW,NEW,E,,,,,,,,,,,,,,,,,,,,,,,,,,,,,,,,,,,,
,,,,,,,,,,,,TestWords/KO_SU_FAI.wav,, 5d331b4c9ce6590019010930,2021-03-24_08h08.31.283,CombinedMST_OA,2020.2.10,Win32,60,,,,,,,,,,,,,,,,,,,,,,,,,,,,,,,,,,,,,,,,,,,,,,,,,,,,,,,,,,,,,,,,,1,1,0.25841,0,85,85,85,1,1,OLD,OLD,E,,,,,,,,,,,,,,,,,,,,,,,,,,,,,,,,,,,,
,,,,,,,,,,,,TestWords/KAI_LAY_TA.wav,, 5d331b4c9ce6590019010930,2021-03-24_08h08.31.283,CombinedMST_OA,2020.2.10,Win32,60,,,,,,,,,,,,,,,,,,,,,,,,,,,,,,,,,,,,,,,,,,,,,,,,,,,,,,,,,,,,,,,,,1,1,0.671955,0,86,86,86,1,1,OLD,OLD,E,,,,,,,,,,,,,,,,,,,,,,,,,,,,,,,,,,,,
,,,,,,,,,,,,TestWords/GA_MU_ZI.wav,, 5d331b4c9ce6590019010930,2021-03-24_08h08.31.283,CombinedMST_OA,2020.2.10,Win32,60,,,,,,,,,,,,,,,,,,,,,,,,,,,,,,,,,,,,,,,,,,,,,,,,,,,,,,,,,,,,,,,,,2,0,0.55082,0,87,87,87,1,1,OLD,OLD,E,,,,,,,,,,,,,,,,,,,,,,,,,,,,,,,,,,,,
,,,,,,,,,,,,TestWords/FU_ZO_RAI.wav,, 5d331b4c9ce6590019010930,2021-03-24_08h08.31.283,CombinedMST_OA,2020.2.10,Win32,60,,,,,,,,,,,,,,,,,,,,,,,,,,,,,,,,,,,,,,,,,,,,,,,,,,,,,,,,,,,,,,,,,2,1,1.567965,0,88,88,88,1,2,NEW,SIMILAR,E,,,,,,,,,,,,,,,,,,,,,,,,,,,,,,,,,,,,
,,,,,,,,,,,,TestWords/KO_SU_FAI.wav,, 5d331b4c9ce6590019010930,2021-03-24_08h08.31.283,CombinedMST_OA,2020.2.10,Win32,60,,,,,,,,,,,,,,,,,,,,,,,,,,,,,,,,,,,,,,,,,,,,,,,,,,,,,,,,,,,,,,,,,1,1,0.75296,0,89,89,89,1,1,OLD,OLD,E,,,,,,,,,,,,,,,,,,,,,,,,,,,,,,,,,,,,
,,,,,,,,,,,,TestWords/KAI_LAY_TA.wav,, 5d331b4c9ce6590019010930,2021-03-24_08h08.31.283,CombinedMST_OA,2020.2.10,Win32,60,,,,,,,,,,,,,,,,,,,,,,,,,,,,,,,,,,,,,,,,,,,,,,,,,,,,,,,,,,,,,,,,,1,1,1.85107,0,90,90,90,1,1,OLD,OLD,E,,,,,,,,,,,,,,,,,,,,,,,,,,,,,,,,,,,,
,,,,,,,,,,,,TestWords/DAI_RU_CHI.wav,, 5d331b4c9ce6590019010930,2021-03-24_08h08.31.283,CombinedMST_OA,2020.2.10,Win32,60,,,,,,,,,,,,,,,,,,,,,,,,,,,,,,,,,,,,,,,,,,,,,,,,,,,,,,,,,,,,,,,,,1,1,0.83375,0,91,91,91,1,1,OLD,OLD,E,,,,,,,,,,,,,,,,,,,,,,,,,,,,,,,,,,,,
,,,,,,,,,,,,TestWords/HI_NAY_VA.wav,, 5d331b4c9ce6590019010930,2021-03-24_08h08.31.283,CombinedMST_OA,2020.2.10,Win32,60,,,,,,,,,,,,,,,,,,,,,,,,,,,,,,,,,,,,,,,,,,,,,,,,,,,,,,,,,,,,,,,,,2,1,0.28536,0,92,92,92,1,2,NEW,NEW,E,,,,,,,,,,,,,,,,,,,,,,,,,,,,,,,,,,,,
,,,,,,,,,,,,TestWords/GU_CHAI_PI.wav,, 5d331b4c9ce6590019010930,2021-03-24_08h08.31.283,CombinedMST_OA,2020.2.10,Win32,60,,,,,,,,,,,,,,,,,,,,,,,,,,,,,,,,,,,,,,,,,,,,,,,,,,,,,,,,,,,,,,,,,2,1,0.70269,0,93,93,93,1,2,NEW,NEW,E,,,,,,,,,,,,,,,,,,,,,,,,,,,,,,,,,,,,
,,,,,,,,,,,,TestWords/FU_RAI_ZO.wav,, 5d331b4c9ce6590019010930,2021-03-24_08h08.31.283,CombinedMST_OA,2020.2.10,Win32,60,,,,,,,,,,,,,,,,,,,,,,,,,,,,,,,,,,,,,,,,,,,,,,,,,,,,,,,,,,,,,,,,,2,1,0.60286,0,94,94,94,1,2,NEW,SIMILAR,E,,,,,,,,,,,,,,,,,,,,,,,,,,,,,,,,,,,,
,,,,,,,,,,,,TestWords/KO_SU_FAI.wav,, 5d331b4c9ce6590019010930,2021-03-24_08h08.31.283,CombinedMST_OA,2020.2.10,Win32,60,,,,,,,,,,,,,,,,,,,,,,,,,,,,,,,,,,,,,,,,,,,,,,,,,,,,,,,,,,,,,,,,,1,1,0.48763,0,95,95,95,1,1,OLD,OLD,E,,,,,,,,,,,,,,,,,,,,,,,,,,,,,,,,,,,,
,,,,,,,,,,,,TestWords/PAI_LU_WA.wav,, 5d331b4c9ce6590019010930,2021-03-24_08h08.31.283,CombinedMST_OA,2020.2.10,Win32,60,,,,,,,,,,,,,,,,,,,,,,,,,,,,,,,,,,,,,,,,,,,,,,,,,,,,,,,,,,,,,,,,,2,1,0.98454,0,96,96,96,1,2,NEW,NEW,E,,,,,,,,,,,,,,,,,,,,,,,,,,,,,,,,,,,,
,,,,,,,,,,,,TestWords/DAI_RU_CHI.wav,, 5d331b4c9ce6590019010930,2021-03-24_08h08.31.283,CombinedMST_OA,2020.2.10,Win32,60,,,,,,,,,,,,,,,,,,,,,,,,,,,,,,,,,,,,,,,,,,,,,,,,,,,,,,,,,,,,,,,,,1,1,0.611105,0,97,97,97,1,1,OLD,OLD,E,,,,,,,,,,,,,,,,,,,,,,,,,,,,,,,,,,,,
,,,,,,,,,,,,TestWords/FI_GU_CHA.wav,, 5d331b4c9ce6590019010930,2021-03-24_08h08.31.283,CombinedMST_OA,2020.2.10,Win32,60,,,,,,,,,,,,,,,,,,,,,,,,,,,,,,,,,,,,,,,,,,,,,,,,,,,,,,,,,,,,,,,,,2,1,1.17945,0,98,98,98,1,2,NEW,NEW,E,,,,,,,,,,,,,,,,,,,,,,,,,,,,,,,,,,,,
,,,,,,,,,,,,TestWords/ZO_FU_RAI.wav,, 5d331b4c9ce6590019010930,2021-03-24_08h08.31.283,CombinedMST_OA,2020.2.10,Win32,60,,,,,,,,,,,,,,,,,,,,,,,,,,,,,,,,,,,,,,,,,,,,,,,,,,,,,,,,,,,,,,,,,2,1,1.034895,0,99,99,99,1,2,NEW,SIMILAR,E,,,,,,,,,,,,,,,,,,,,,,,,,,,,,,,,,,,,
,,,,,,,,,,,,,1, 5d331b4c9ce6590019010930,2021-03-24_08h08.31.283,CombinedMST_OA,2020.2.10,Win32,60,,,,,,,,,,,,,,,,,SyllableCheck/TI.wav,,,,,,,,,,,,,,,,,,,,,,,,,,,,,,,,,,,,,,,,,,,,,,,,,,,,,,,,,,,,return,33.434675,yellow ,space,7.175495,1,1,7.470735,0,0,0,0,1,TI,TEE,DEE,SEE,,,,,,,,,,,,,,,,,,,
,,,,,,,,,,,,,3, 5d331b4c9ce6590019010930,2021-03-24_08h08.31.283,CombinedMST_OA,2020.2.10,Win32,60,,,,,,,,,,,,,,,,,SyllableCheck/BA.wav,,,,,,,,,,,,,,,,,,,,,,,,,,,,,,,,,,,,,,,,,,,,,,,,,,,,,,,,,,,,,,,,,3,1,2.34083,0,1,1,4,1,BA,PA,BEE,BA,,,,,,,,,,,,,,,,,,,
,,,,,,,,,,,,,3, 5d331b4c9ce6590019010930,2021-03-24_08h08.31.283,CombinedMST_OA,2020.2.10,Win32,60,,,,,,,,,,,,,,,,,SyllableCheck/FU.wav,,,,,,,,,,,,,,,,,,,,,,,,,,,,,,,,,,,,,,,,,,,,,,,,,,,,,,,,,,,,,,,,,3,1,1.88607,0,2,2,3,1,FU,VU,FO,FU,,,,,,,,,,,,,,,,,,,
,,,,,,,,,,,,,2, 5d331b4c9ce6590019010930,2021-03-24_08h08.31.283,CombinedMST_OA,2020.2.10,Win32,60,,,,,,,,,,,,,,,,,SyllableCheck/SU.wav,,,,,,,,,,,,,,,,,,,,,,,,,,,,,,,,,,,,,,,,,,,,,,,,,,,,,,,,,,,,,,,,,2,1,1.40877,0,3,3,1,1,SU,SO,SU,ZU,,,,,,,,,,,,,,,,,,,
,,,,,,,,,,,,,2, 5d331b4c9ce6590019010930,2021-03-24_08h08.31.283,CombinedMST_OA,2020.2.10,Win32,60,,,,,,,,,,,,,,,,,SyllableCheck/KAY.wav,,,,,,,,,,,,,,,,,,,,,,,,,,,,,,,,,,,,,,,,,,,,,,,,,,,,,,,,,,,,,,,,,2,1,1.203825,0,4,4,2,1,KAY,KEE,KAY,HAY,,,,,,,,,,,,,,,,,,,
,,,,,,,,,,,,,, 5d331b4c9ce6590019010930,2021-03-24_08h08.31.283,CombinedMST_OA,2020.2.10,Win32,60,,,,,,,,,,,,,,,,,,,,,,,,,,,,,,,,,,,,,,,,,,,,,,,,,,,,,,,,,,,,,,,,,,,,,,,,,,,,,,,,,,,,,,,,,,,,,,0,0,0,0,1,,,,,,,,,,,,,,
,,,,,,,,,,,,,, 5d331b4c9ce6590019010930,2021-03-24_08h08.31.283,CombinedMST_OA,2020.2.10,Win32,60,,,,,,,,,,,,,,,,,,,,,,,,,,,,,,,,,,,,,,,,,,,0,1,1,0,1,1,0,,,,,,,,,,,,,,,,,,,,,,,,,,,,,,,,,,,,,,,,,,,,,,,,,,,,,,,,,,,,,,,
,,,,,,,,,,,,,, 5d331b4c9ce6590019010930,2021-03-24_08h08.31.283,CombinedMST_OA,2020.2.10,Win32,60,,,,,,,,,,,,,,,,,,,SoundMST/Howl.wav,,,,SAME,GS,,,,,,,,,,,,,,,,,,,,,,,,,,,,,,,,,,,,,,,,,,,,,,,,,,,,,,,,,,,,,,,,,,,,,,,,,,,space,5.407025,space,13.96367,return,14.549615,wolf ,0,0,0,80,1,,
,,,,,,,,,,,,,, 5d331b4c9ce6590019010930,2021-03-24_08h08.31.283,CombinedMST_OA,2020.2.10,Win32,60,,,,,,,,,,,,,,,,,,,SoundMST/Puff_A.wav,,,,SAME,GS,,,,,,,,,,,,,,,,,,,,,,,,,,,,,,,,,,,,,,,,,,,,,,,,,,,,,,,,,,,,,,,,,,,,,,,,,,,,,,,return,18.924745, squeaky toy,0,1,1,58,1,,
,,,,,,,,,,,,,, 5d331b4c9ce6590019010930,2021-03-24_08h08.31.283,CombinedMST_OA,2020.2.10,Win32,60,,,,,,,,,,,,,,,,,,,SoundMST/Cuckoo_A.wav,,,,SAME,GS,,,,,,,,,,,,,,,,,,,,,,,,,,,,,,,,,,,,,,,,,,,,,,,,,,,,,,,,,,,,,,,,,,,,,,,,,,,,,,,return,16.578425, coocoo clock,0,2,2,75,1,,
,,,,,,,,,,,,,, 5d331b4c9ce6590019010930,2021-03-24_08h08.31.283,CombinedMST_OA,2020.2.10,Win32,60,,,,,,,,,,,,,,,,,,,SoundMST/Chime_B.wav,,,,SIMILAR,GS,,,,,,,,,,,,,,,,,,,,,,,,,,,,,,,,,,,,,,,,,,,,,,,,,,,,,,,,,,,,,,,,,,,,,,,,,,,,,,,return,10.180245, church bell,0,3,3,26,1,,
,,,,,,,,,,,,,, 5d331b4c9ce6590019010930,2021-03-24_08h08.31.283,CombinedMST_OA,2020.2.10,Win32,60,,,,,,,,,,,,,,,,,,,SoundMST/Bird_E.wav,,,,SIMILAR,GS,,,,,,,,,,,,,,,,,,,,,,,,,,,,,,,,,,,,,,,,,,,,,,,,,,,,,,,,,,,,,,,,,,,,,,,,,,,,,,,return,5.74687, bird song,0,4,4,31,1,,
,,,,,,,,,,,,,, 5d331b4c9ce6590019010930,2021-03-24_08h08.31.283,CombinedMST_OA,2020.2.10,Win32,60,,,,,,,,,,,,,,,,,,,SoundMST/Clap_B.wav,,,,SIMILAR,GS,,,,,,,,,,,,,,,,,,,,,,,,,,,,,,,,,,,,,,,,,,,,,,,,,,,,,,,,,,,,,,,,,,,,,,,,,,,,,,,return,6.91366, people clapping,0,5,5,47,1,,
,,,,,,,,,,,,,, 5d331b4c9ce6590019010930,2021-03-24_08h08.31.283,CombinedMST_OA,2020.2.10,Win32,60,,,,,,,,,,,,,,,,,,,SoundMST/Whistle_C.wav,,,,SIMILAR,GS,,,,,,,,,,,,,,,,,,,,,,,,,,,,,,,,,,,,,,,,,,,,,,,,,,,,,,,,,,,,,,,,,,,,,,,,,,,,,,,return,8.279335, whistle blown,0,6,6,11,1,,
,,,,,,,,,,,,,, 5d331b4c9ce6590019010930,2021-03-24_08h08.31.283,CombinedMST_OA,2020.2.10,Win32,60,,,,,,,,,,,,,,,,,,,SoundMST/Faucet_A.wav,,,,SIMILAR,GS,,,,,,,,,,,,,,,,,,,,,,,,,,,,,,,,,,,,,,,,,,,,,,,,,,,,,,,,,,,,,,,,,,,,,,,,,,,,,,,return,8.10009, tap running,0,7,7,29,1,,
,,,,,,,,,,,,,, 5d331b4c9ce6590019010930,2021-03-24_08h08.31.283,CombinedMST_OA,2020.2.10,Win32,60,,,,,,,,,,,,,,,,,,,SoundMST/Elephant_C.wav,,,,SIMILAR,GS,,,,,,,,,,,,,,,,,,,,,,,,,,,,,,,,,,,,,,,,,,,,,,,,,,,,,,,,,,,,,,,,,,,,,,,,,,,,,,,return,7.5287, elephant,0,8,8,24,1,,
,,,,,,,,,,,,,, 5d331b4c9ce6590019010930,2021-03-24_08h08.31.283,CombinedMST_OA,2020.2.10,Win32,60,,,,,,,,,,,,,,,,,,,SoundMST/Chicken_A.wav,,,,SAME,GS,,,,,,,,,,,,,,,,,,,,,,,,,,,,,,,,,,,,,,,,,,,,,,,,,,,,,,,,,,,,,,,,,,,,,,,,,,,,,,,return,15.823125, chicken chuck,0,9,9,60,1,,
,,,,,,,,,,,,,, 5d331b4c9ce6590019010930,2021-03-24_08h08.31.283,CombinedMST_OA,2020.2.10,Win32,60,,,,,,,,,,,,,,,,,,,SoundMST/Camera.wav,,,,SAME,GS,,,,,,,,,,,,,,,,,,,,,,,,,,,,,,,,,,,,,,,,,,,,,,,,,,,,,,,,,,,,,,,,,,,,,,,,,,,,,,,return,11.06608, camera ,0,10,10,84,1,,
,,,,,,,,,,,,,, 5d331b4c9ce6590019010930,2021-03-24_08h08.31.283,CombinedMST_OA,2020.2.10,Win32,60,,,,,,,,,,,,,,,,,,,SoundMST/Growl_G.wav,,,,SIMILAR,GS,,,,,,,,,,,,,,,,,,,,,,,,,,,,,,,,,,,,,,,,,,,,,,,,,,,,,,,,,,,,,,,,,,,,,,,,,,,,,,,return,6.34485, lion roar,0,11,11,43,1,,
,,,,,,,,,,,,,, 5d331b4c9ce6590019010930,2021-03-24_08h08.31.283,CombinedMST_OA,2020.2.10,Win32,60,,,,,,,,,,,,,,,,,,,SoundMST/Droplet_B.wav,,,,SAME,GS,,,,,,,,,,,,,,,,,,,,,,,,,,,,,,,,,,,,,,,,,,,,,,,,,,,,,,,,,,,,,,,,,,,,,,,,,,,,,,,return,7.973375, dripping water,0,12,12,85,1,,
,,,,,,,,,,,,,, 5d331b4c9ce6590019010930,2021-03-24_08h08.31.283,CombinedMST_OA,2020.2.10,Win32,60,,,,,,,,,,,,,,,,,,,SoundMST/Chomp_A.wav,,,,SIMILAR,GS,,,,,,,,,,,,,,,,,,,,,,,,,,,,,,,,,,,,,,,,,,,,,,,,,,,,,,,,,,,,,,,,,,,,,,,,,,,,,,,return,13.48098, person eating crisps,0,13,13,36,1,,
,,,,,,,,,,,,,, 5d331b4c9ce6590019010930,2021-03-24_08h08.31.283,CombinedMST_OA,2020.2.10,Win32,60,,,,,,,,,,,,,,,,,,,SoundMST/Toilet_B.wav,,,,SAME,GS,,,,,,,,,,,,,,,,,,,,,,,,,,,,,,,,,,,,,,,,,,,,,,,,,,,,,,,,,,,,,,,,,,,,,,,,,,,,,,,return,7.158615, toilet flush,0,14,14,51,1,,
,,,,,,,,,,,,,, 5d331b4c9ce6590019010930,2021-03-24_08h08.31.283,CombinedMST_OA,2020.2.10,Win32,60,,,,,,,,,,,,,,,,,,,SoundMST/Typing.wav,,,,SAME,GS,,,,,,,,,,,,,,,,,,,,,,,,,,,,,,,,,,,,,,,,,,,,,,,,,,,,,,,,,,,,,,,,,,,,,,,,,,,,,,,return,9.940285, computer keyboard,0,15,15,49,1,,
,,,,,,,,,,,,,, 5d331b4c9ce6590019010930,2021-03-24_08h08.31.283,CombinedMST_OA,2020.2.10,Win32,60,,,,,,,,,,,,,,,,,,,SoundMST/Piano_D.wav,,,,SAME,GS,,,,,,,,,,,,,,,,,,,,,,,,,,,,,,,,,,,,,,,,,,,,,,,,,,,,,,,,,,,,,,,,,,,,,,,,,,,,,,,return,8.63733, piano music,0,16,16,77,1,,
,,,,,,,,,,,,,, 5d331b4c9ce6590019010930,2021-03-24_08h08.31.283,CombinedMST_OA,2020.2.10,Win32,60,,,,,,,,,,,,,,,,,,,SoundMST/Phone_E.wav,,,,SIMILAR,GS,,,,,,,,,,,,,,,,,,,,,,,,,,,,,,,,,,,,,,,,,,,,,,,,,,,,,,,,,,,,,,,,,,,,,,,,,,,,,,,return,6.96459, phone ringing,0,17,17,13,1,,
,,,,,,,,,,,,,, 5d331b4c9ce6590019010930,2021-03-24_08h08.31.283,CombinedMST_OA,2020.2.10,Win32,60,,,,,,,,,,,,,,,,,,,SoundMST/Goat_C.wav,,,,SIMILAR,GS,,,,,,,,,,,,,,,,,,,,,,,,,,,,,,,,,,,,,,,,,,,,,,,,,,,,,,,,,,,,,,,,,,,,,,,,,,,,,,,return,12.26369, goat bleating,0,18,18,20,1,,
,,,,,,,,,,,,,, 5d331b4c9ce6590019010930,2021-03-24_08h08.31.283,CombinedMST_OA,2020.2.10,Win32,60,,,,,,,,,,,,,,,,,,,SoundMST/Trumpet_B.wav,,,,SAME,GS,,,,,,,,,,,,,,,,,,,,,,,,,,,,,,,,,,,,,,,,,,,,,,,,,,,,,,,,,,,,,,,,,,,,,,,,,,,,,,,return,26.288735, music instrument played,0,19,19,63,1,,
,,,,,,,,,,,,,, 5d331b4c9ce6590019010930,2021-03-24_08h08.31.283,CombinedMST_OA,2020.2.10,Win32,60,,,,,,,,,,,,,,,,,,,SoundMST/Buzz.wav,,,,SAME,GS,,,,,,,,,,,,,,,,,,,,,,,,,,,,,,,,,,,,,,,,,,,,,,,,,,,,,,,,,,,,,,,,,,,,,,,,,,,,,,,return,14.27476, mobile phone vibration,0,20,20,52,1,,
,,,,,,,,,,,,,, 5d331b4c9ce6590019010930,2021-03-24_08h08.31.283,CombinedMST_OA,2020.2.10,Win32,60,,,,,,,,,,,,,,,,,,,SoundMST/Siren_E.wav,,,,SIMILAR,GS,,,,,,,,,,,,,,,,,,,,,,,,,,,,,,,,,,,,,,,,,,,,,,,,,,,,,,,,,,,,,,,,,,,,,,,,,,,,,,,return,25.928265, emergency siren,0,21,21,38,1,,
,,,,,,,,,,,,,, 5d331b4c9ce6590019010930,2021-03-24_08h08.31.283,CombinedMST_OA,2020.2.10,Win32,60,,,,,,,,,,,,,,,,,,,SoundMST/DialTone.wav,,,,SAME,GS,,,,,,,,,,,,,,,,,,,,,,,,,,,,,,,,,,,,,,,,,,,,,,,,,,,,,,,,,,,,,,,,,,,,,,,,,,,,,,,return,11.49185, telephone receiver,0,22,22,54,1,,
,,,,,,,,,,,,,, 5d331b4c9ce6590019010930,2021-03-24_08h08.31.283,CombinedMST_OA,2020.2.10,Win32,60,,,,,,,,,,,,,,,,,,,SoundMST/Cough_D.wav,,,,SIMILAR,GS,,,,,,,,,,,,,,,,,,,,,,,,,,,,,,,,,,,,,,,,,,,,,,,,,,,,,,,,,,,,,,,,,,,,,,,,,,,,,,,return,12.176695, person coughing ,0,23,23,30,1,,
,,,,,,,,,,,,,, 5d331b4c9ce6590019010930,2021-03-24_08h08.31.283,CombinedMST_OA,2020.2.10,Win32,60,,,,,,,,,,,,,,,,,,,SoundMST/Cough_F.wav,,,,SIMILAR,GS,,,,,,,,,,,,,,,,,,,,,,,,,,,,,,,,,,,,,,,,,,,,,,,,,,,,,,,,,,,,,,,,,,,,,,,,,,,,,,,return,15.697315, another person coughing ,0,24,24,6,1,,
,,,,,,,,,,,,,, 5d331b4c9ce6590019010930,2021-03-24_08h08.31.283,CombinedMST_OA,2020.2.10,Win32,60,,,,,,,,,,,,,,,,,,,SoundMST/Writing_C.wav,,,,SIMILAR,GS,,,,,,,,,,,,,,,,,,,,,,,,,,,,,,,,,,,,,,,,,,,,,,,,,,,,,,,,,,,,,,,,,,,,,,,,,,,,,,,return,10.413105, chalk board writing,0,25,25,3,1,,
,,,,,,,,,,,,,, 5d331b4c9ce6590019010930,2021-03-24_08h08.31.283,CombinedMST_OA,2020.2.10,Win32,60,,,,,,,,,,,,,,,,,,,SoundMST/Slurp.wav,,,,SAME,GS,,,,,,,,,,,,,,,,,,,,,,,,,,,,,,,,,,,,,,,,,,,,,,,,,,,,,,,,,,,,,,,,,,,,,,,,,,,,,,,return,57.045375, slurping from cup,0,26,26,66,1,,
,,,,,,,,,,,,,, 5d331b4c9ce6590019010930,2021-03-24_08h08.31.283,CombinedMST_OA,2020.2.10,Win32,60,,,,,,,,,,,,,,,,,,,SoundMST/Wind_B.wav,,,,SAME,GS,,,,,,,,,,,,,,,,,,,,,,,,,,,,,,,,,,,,,,,,,,,,,,,,,,,,,,,,,,,,,,,,,,,,,,,,,,,,,,,return,6.322025, wind,0,27,27,55,1,,
,,,,,,,,,,,,,, 5d331b4c9ce6590019010930,2021-03-24_08h08.31.283,CombinedMST_OA,2020.2.10,Win32,60,,,,,,,,,,,,,,,,,,,SoundMST/Dog_F.wav,,,,SIMILAR,GS,,,,,,,,,,,,,,,,,,,,,,,,,,,,,,,,,,,,,,,,,,,,,,,,,,,,,,,,,,,,,,,,,,,,,,,,,,,,,,,return,6.565285, dog barking,0,28,28,17,1,,
,,,,,,,,,,,,,, 5d331b4c9ce6590019010930,2021-03-24_08h08.31.283,CombinedMST_OA,2020.2.10,Win32,60,,,,,,,,,,,,,,,,,,,SoundMST/Snore_E.wav,,,,SIMILAR,GS,,,,,,,,,,,,,,,,,,,,,,,,,,,,,,,,,,,,,,,,,,,,,,,,,,,,,,,,,,,,,,,,,,,,,,,,,,,,,,,return,10.047925, the misses snoring,0,29,29,10,1,,
,,,,,,,,,,,,,, 5d331b4c9ce6590019010930,2021-03-24_08h08.31.283,CombinedMST_OA,2020.2.10,Win32,60,,,,,,,,,,,,,,,,,,,SoundMST/Writing_A.wav,,,,SIMILAR,GS,,,,,,,,,,,,,,,,,,,,,,,,,,,,,,,,,,,,,,,,,,,,,,,,,,,,,,,,,,,,,,,,,,,,,,,,,,,,,,,return,13.19711, chalk board writing,0,30,30,27,1,,
,,,,,,,,,,,,,, 5d331b4c9ce6590019010930,2021-03-24_08h08.31.283,CombinedMST_OA,2020.2.10,Win32,60,,,,,,,,,,,,,,,,,,,SoundMST/Coin_E.wav,,,,SIMILAR,GS,,,,,,,,,,,,,,,,,,,,,,,,,,,,,,,,,,,,,,,,,,,,,,,,,,,,,,,,,,,,,,,,,,,,,,,,,,,,,,,return,9.448195, gathering up change,0,31,31,18,1,,
,,,,,,,,,,,,,, 5d331b4c9ce6590019010930,2021-03-24_08h08.31.283,CombinedMST_OA,2020.2.10,Win32,60,,,,,,,,,,,,,,,,,,,SoundMST/Faucet_C.wav,,,,SIMILAR,GS,,,,,,,,,,,,,,,,,,,,,,,,,,,,,,,,,,,,,,,,,,,,,,,,,,,,,,,,,,,,,,,,,,,,,,,,,,,,,,,return,9.791255, shower running?,0,32,32,5,1,,
,,,,,,,,,,,,,, 5d331b4c9ce6590019010930,2021-03-24_08h08.31.283,CombinedMST_OA,2020.2.10,Win32,60,,,,,,,,,,,,,,,,,,,SoundMST/Airhorn.wav,,,,SAME,GS,,,,,,,,,,,,,,,,,,,,,,,,,,,,,,,,,,,,,,,,,,,,,,,,,,,,,,,,,,,,,,,,,,,,,,,,,,,,,,,return,7.52532, air horn,0,33,33,70,1,,
,,,,,,,,,,,,,, 5d331b4c9ce6590019010930,2021-03-24_08h08.31.283,CombinedMST_OA,2020.2.10,Win32,60,,,,,,,,,,,,,,,,,,,SoundMST/HairDryer_A.wav,,,,SAME,GS,,,,,,,,,,,,,,,,,,,,,,,,,,,,,,,,,,,,,,,,,,,,,,,,,,,,,,,,,,,,,,,,,,,,,,,,,,,,,,,return,48.36671, vacuum cleaner,0,34,34,74,1,,
,,,,,,,,,,,,,, 5d331b4c9ce6590019010930,2021-03-24_08h08.31.283,CombinedMST_OA,2020.2.10,Win32,60,,,,,,,,,,,,,,,,,,,SoundMST/Hammer_A.wav,,,,SAME,GS,,,,,,,,,,,,,,,,,,,,,,,,,,,,,,,,,,,,,,,,,,,,,,,,,,,,,,,,,,,,,,,,,,,,,,,,,,,,,,,return,16.962155, person banging in nail,0,35,35,76,1,,
,,,,,,,,,,,,,, 5d331b4c9ce6590019010930,2021-03-24_08h08.31.283,CombinedMST_OA,2020.2.10,Win32,60,,,,,,,,,,,,,,,,,,,SoundMST/Duck_D.wav,,,,SIMILAR,GS,,,,,,,,,,,,,,,,,,,,,,,,,,,,,,,,,,,,,,,,,,,,,,,,,,,,,,,,,,,,,,,,,,,,,,,,,,,,,,,return,6.47014, duck,0,36,36,8,1,,
,,,,,,,,,,,,,, 5d331b4c9ce6590019010930,2021-03-24_08h08.31.283,CombinedMST_OA,2020.2.10,Win32,60,,,,,,,,,,,,,,,,,,,SoundMST/Bullfrog.wav,,,,SAME,GS,,,,,,,,,,,,,,,,,,,,,,,,,,,,,,,,,,,,,,,,,,,,,,,,,,,,,,,,,,,,,,,,,,,,,,,,,,,,,,,return,8.33601, croaking frog,0,37,37,73,1,,
,,,,,,,,,,,,,, 5d331b4c9ce6590019010930,2021-03-24_08h08.31.283,CombinedMST_OA,2020.2.10,Win32,60,,,,,,,,,,,,,,,,,,,SoundMST/Laugh_D.wav,,,,SIMILAR,GS,,,,,,,,,,,,,,,,,,,,,,,,,,,,,,,,,,,,,,,,,,,,,,,,,,,,,,,,,,,,,,,,,,,,,,,,,,,,,,,return,10.547725, people laughing,0,38,38,9,1,,
,,,,,,,,,,,,,, 5d331b4c9ce6590019010930,2021-03-24_08h08.31.283,CombinedMST_OA,2020.2.10,Win32,60,,,,,,,,,,,,,,,,,,,SoundMST/Baby_E.wav,,,,SIMILAR,GS,,,,,,,,,,,,,,,,,,,,,,,,,,,,,,,,,,,,,,,,,,,,,,,,,,,,,,,,,,,,,,,,,,,,,,,,,,,,,,,return,7.96992, baby noises,0,39,39,4,1,,
,,,,,,,,,,,,,, 5d331b4c9ce6590019010930,2021-03-24_08h08.31.283,CombinedMST_OA,2020.2.10,Win32,60,,,,,,,,,,,,,,,,,,,SoundMST/Cow.wav,,,,SAME,GS,,,,,,,,,,,,,,,,,,,,,,,,,,,,,,,,,,,,,,,,,,,,,,,,,,,,,,,,,,,,,,,,,,,,,,,,,,,,,,,return,6.441225, mooing cow,0,40,40,71,1,,
,,,,,,,,,,,,,, 5d331b4c9ce6590019010930,2021-03-24_08h08.31.283,CombinedMST_OA,2020.2.10,Win32,60,,,,,,,,,,,,,,,,,,,SoundMST/Sneeze_B.wav,,,,SAME,GS,,,,,,,,,,,,,,,,,,,,,,,,,,,,,,,,,,,,,,,,,,,,,,,,,,,,,,,,,,,,,,,,,,,,,,,,,,,,,,,return,7.14589, person sneezing,0,41,41,64,1,,
,,,,,,,,,,,,,, 5d331b4c9ce6590019010930,2021-03-24_08h08.31.283,CombinedMST_OA,2020.2.10,Win32,60,,,,,,,,,,,,,,,,,,,SoundMST/Bird_A.wav,,,,SIMILAR,GS,,,,,,,,,,,,,,,,,,,,,,,,,,,,,,,,,,,,,,,,,,,,,,,,,,,,,,,,,,,,,,,,,,,,,,,,,,,,,,,return,9.326055, bird singing,0,42,42,7,1,,
,,,,,,,,,,,,,, 5d331b4c9ce6590019010930,2021-03-24_08h08.31.283,CombinedMST_OA,2020.2.10,Win32,60,,,,,,,,,,,,,,,,,,,SoundMST/Coin_D.wav,,,,SIMILAR,GS,,,,,,,,,,,,,,,,,,,,,,,,,,,,,,,,,,,,,,,,,,,,,,,,,,,,,,,,,,,,,,,,,,,,,,,,,,,,,,,return,12.07489, person collecting up change,0,43,43,42,1,,
,,,,,,,,,,,,,, 5d331b4c9ce6590019010930,2021-03-24_08h08.31.283,CombinedMST_OA,2020.2.10,Win32,60,,,,,,,,,,,,,,,,,,,SoundMST/Snore_D.wav,,,,SIMILAR,GS,,,,,,,,,,,,,,,,,,,,,,,,,,,,,,,,,,,,,,,,,,,,,,,,,,,,,,,,,,,,,,,,,,,,,,,,,,,,,,,return,12.209755, the misses snoring again,0,44,44,34,1,,
,,,,,,,,,,,,,, 5d331b4c9ce6590019010930,2021-03-24_08h08.31.283,CombinedMST_OA,2020.2.10,Win32,60,,,,,,,,,,,,,,,,,,,SoundMST/Clap_C.wav,,,,SIMILAR,GS,,,,,,,,,,,,,,,,,,,,,,,,,,,,,,,,,,,,,,,,,,,,,,,,,,,,,,,,,,,,,,,,,,,,,,,,,,,,,,,return,5.874955, people clapping,0,45,45,23,1,,
,,,,,,,,,,,,,, 5d331b4c9ce6590019010930,2021-03-24_08h08.31.283,CombinedMST_OA,2020.2.10,Win32,60,,,,,,,,,,,,,,,,,,,SoundMST/CarStart_F.wav,,,,SIMILAR,GS,,,,,,,,,,,,,,,,,,,,,,,,,,,,,,,,,,,,,,,,,,,,,,,,,,,,,,,,,,,,,,,,,,,,,,,,,,,,,,,return,15.416745, car starting up,0,46,46,22,1,,
,,,,,,,,,,,,,, 5d331b4c9ce6590019010930,2021-03-24_08h08.31.283,CombinedMST_OA,2020.2.10,Win32,60,,,,,,,,,,,,,,,,,,,SoundMST/Crow_A.wav,,,,SIMILAR,GS,,,,,,,,,,,,,,,,,,,,,,,,,,,,,,,,,,,,,,,,,,,,,,,,,,,,,,,,,,,,,,,,,,,,,,,,,,,,,,,return,28.08528, crow making noise,0,47,47,15,1,,
,,,,,,,,,,,,,, 5d331b4c9ce6590019010930,2021-03-24_08h08.31.283,CombinedMST_OA,2020.2.10,Win32,60,,,,,,,,,,,,,,,,,,,SoundMST/Footsteps_C.wav,,,,SIMILAR,GS,,,,,,,,,,,,,,,,,,,,,,,,,,,,,,,,,,,,,,,,,,,,,,,,,,,,,,,,,,,,,,,,,,,,,,,,,,,,,,,return,14.3609, person climbing steps,0,48,48,40,1,,
,,,,,,,,,,,,,, 5d331b4c9ce6590019010930,2021-03-24_08h08.31.283,CombinedMST_OA,2020.2.10,Win32,60,,,,,,,,,,,,,,,,,,,SoundMST/Chime_A.wav,,,,SIMILAR,GS,,,,,,,,,,,,,,,,,,,,,,,,,,,,,,,,,,,,,,,,,,,,,,,,,,,,,,,,,,,,,,,,,,,,,,,,,,,,,,,return,9.18821, church bells,0,49,49,2,1,,
,,,,,,,,,,,,,, 5d331b4c9ce6590019010930,2021-03-24_08h08.31.283,CombinedMST_OA,2020.2.10,Win32,60,,,,,,,,,,,,,,,,,,,SoundMST/Horse.wav,,,,SAME,GS,,,,,,,,,,,,,,,,,,,,,,,,,,,,,,,,,,,,,,,,,,,,,,,,,,,,,,,,,,,,,,,,,,,,,,,,,,,,,,,return,29.922775, horseneighing,0,50,50,82,1,,
,,,,,,,,,,,,,, 5d331b4c9ce6590019010930,2021-03-24_08h08.31.283,CombinedMST_OA,2020.2.10,Win32,60,,,,,,,,,,,,,,,,,,,SoundMST/Footsteps_F.wav,,,,SIMILAR,GS,,,,,,,,,,,,,,,,,,,,,,,,,,,,,,,,,,,,,,,,,,,,,,,,,,,,,,,,,,,,,,,,,,,,,,,,,,,,,,,return,11.393855, person walking across wood floor,0,51,51,16,1,,
,,,,,,,,,,,,,, 5d331b4c9ce6590019010930,2021-03-24_08h08.31.283,CombinedMST_OA,2020.2.10,Win32,60,,,,,,,,,,,,,,,,,,,SoundMST/Cello.wav,,,,SAME,GS,,,,,,,,,,,,,,,,,,,,,,,,,,,,,,,,,,,,,,,,,,,,,,,,,,,,,,,,,,,,,,,,,,,,,,,,,,,,,,,return,21.32891, person playing oboe,0,52,52,61,1,,
,,,,,,,,,,,,,, 5d331b4c9ce6590019010930,2021-03-24_08h08.31.283,CombinedMST_OA,2020.2.10,Win32,60,,,,,,,,,,,,,,,,,,,SoundMST/Bubbles_B.wav,,,,SIMILAR,GS,,,,,,,,,,,,,,,,,,,,,,,,,,,,,,,,,,,,,,,,,,,,,,,,,,,,,,,,,,,,,,,,,,,,,,,,,,,,,,,return,12.87881, gurgling water ,0,53,53,21,1,,
,,,,,,,,,,,,,, 5d331b4c9ce6590019010930,2021-03-24_08h08.31.283,CombinedMST_OA,2020.2.10,Win32,60,,,,,,,,,,,,,,,,,,,SoundMST/Thunder_A.wav,,,,SAME,GS,,,,,,,,,,,,,,,,,,,,,,,,,,,,,,,,,,,,,,,,,,,,,,,,,,,,,,,,,,,,,,,,,,,,,,,,,,,,,,,return,10.183365, Thunder maybe,0,54,54,48,1,,
,,,,,,,,,,,,,, 5d331b4c9ce6590019010930,2021-03-24_08h08.31.283,CombinedMST_OA,2020.2.10,Win32,60,,,,,,,,,,,,,,,,,,,SoundMST/Siren_A.wav,,,,SIMILAR,GS,,,,,,,,,,,,,,,,,,,,,,,,,,,,,,,,,,,,,,,,,,,,,,,,,,,,,,,,,,,,,,,,,,,,,,,,,,,,,,,return,13.51976, emergency sirens,0,55,55,14,1,,
,,,,,,,,,,,,,, 5d331b4c9ce6590019010930,2021-03-24_08h08.31.283,CombinedMST_OA,2020.2.10,Win32,60,,,,,,,,,,,,,,,,,,,SoundMST/Sleighbells_B.wav,,,,SAME,GS,,,,,,,,,,,,,,,,,,,,,,,,,,,,,,,,,,,,,,,,,,,,,,,,,,,,,,,,,,,,,,,,,,,,,,,,,,,,,,,return,54.331195, tambourine or morris dancers,0,56,56,50,1,,
,,,,,,,,,,,,,, 5d331b4c9ce6590019010930,2021-03-24_08h08.31.283,CombinedMST_OA,2020.2.10,Win32,60,,,,,,,,,,,,,,,,,,,SoundMST/Baby_F.wav,,,,SIMILAR,GS,,,,,,,,,,,,,,,,,,,,,,,,,,,,,,,,,,,,,,,,,,,,,,,,,,,,,,,,,,,,,,,,,,,,,,,,,,,,,,,return,10.772735, baby gurgling ,0,57,57,28,1,,
,,,,,,,,,,,,,, 5d331b4c9ce6590019010930,2021-03-24_08h08.31.283,CombinedMST_OA,2020.2.10,Win32,60,,,,,,,,,,,,,,,,,,,SoundMST/Pour_B.wav,,,,SIMILAR,GS,,,,,,,,,,,,,,,,,,,,,,,,,,,,,,,,,,,,,,,,,,,,,,,,,,,,,,,,,,,,,,,,,,,,,,,,,,,,,,,return,10.79244, water pooring in to a glass,0,58,58,25,1,,
,,,,,,,,,,,,,, 5d331b4c9ce6590019010930,2021-03-24_08h08.31.283,CombinedMST_OA,2020.2.10,Win32,60,,,,,,,,,,,,,,,,,,,SoundMST/Phone_D.wav,,,,SIMILAR,GS,,,,,,,,,,,,,,,,,,,,,,,,,,,,,,,,,,,,,,,,,,,,,,,,,,,,,,,,,,,,,,,,,,,,,,,,,,,,,,,return,6.025945, phone ringing,0,59,59,37,1,,
,,,,,,,,,,,,,, 5d331b4c9ce6590019010930,2021-03-24_08h08.31.283,CombinedMST_OA,2020.2.10,Win32,60,,,,,,,,,,,,,,,,,,,SoundMST/CarStart_E.wav,,,,SIMILAR,GS,,,,,,,,,,,,,,,,,,,,,,,,,,,,,,,,,,,,,,,,,,,,,,,,,,,,,,,,,,,,,,,,,,,,,,,,,,,,,,,return,7.88586, car starting up,0,60,60,46,1,,
,,,,,,,,,,,,,, 5d331b4c9ce6590019010930,2021-03-24_08h08.31.283,CombinedMST_OA,2020.2.10,Win32,60,,,,,,,,,,,,,,,,,,,SoundMST/Heartbeat.wav,,,,SAME,GS,,,,,,,,,,,,,,,,,,,,,,,,,,,,,,,,,,,,,,,,,,,,,,,,,,,,,,,,,,,,,,,,,,,,,,,,,,,,,,,return,11.780845, heart beat,0,61,61,56,1,,
,,,,,,,,,,,,,, 5d331b4c9ce6590019010930,2021-03-24_08h08.31.283,CombinedMST_OA,2020.2.10,Win32,60,,,,,,,,,,,,,,,,,,,SoundMST/Guitar_B.wav,,,,SAME,GS,,,,,,,,,,,,,,,,,,,,,,,,,,,,,,,,,,,,,,,,,,,,,,,,,,,,,,,,,,,,,,,,,,,,,,,,,,,,,,,return,23.48665, guitar chord,0,62,62,59,1,,
,,,,,,,,,,,,,, 5d331b4c9ce6590019010930,2021-03-24_08h08.31.283,CombinedMST_OA,2020.2.10,Win32,60,,,,,,,,,,,,,,,,,,,SoundMST/Dog_H.wav,,,,SIMILAR,GS,,,,,,,,,,,,,,,,,,,,,,,,,,,,,,,,,,,,,,,,,,,,,,,,,,,,,,,,,,,,,,,,,,,,,,,,,,,,,,,return,11.342845, dog barking,0,63,63,41,1,,
,,,,,,,,,,,,,, 5d331b4c9ce6590019010930,2021-03-24_08h08.31.283,CombinedMST_OA,2020.2.10,Win32,60,,,,,,,,,,,,,,,,,,,SoundMST/Duck_C.wav,,,,SIMILAR,GS,,,,,,,,,,,,,,,,,,,,,,,,,,,,,,,,,,,,,,,,,,,,,,,,,,,,,,,,,,,,,,,,,,,,,,,,,,,,,,,return,8.682915, quaking duck,0,64,64,32,1,,
,,,,,,,,,,,,,, 5d331b4c9ce6590019010930,2021-03-24_08h08.31.283,CombinedMST_OA,2020.2.10,Win32,60,,,,,,,,,,,,,,,,,,,SoundMST/Fireworks.wav,,,,SAME,GS,,,,,,,,,,,,,,,,,,,,,,,,,,,,,,,,,,,,,,,,,,,,,,,,,,,,,,,,,,,,,,,,,,,,,,,,,,,,,,,return,10.623225, fireworks,0,65,65,78,1,,
,,,,,,,,,,,,,, 5d331b4c9ce6590019010930,2021-03-24_08h08.31.283,CombinedMST_OA,2020.2.10,Win32,60,,,,,,,,,,,,,,,,,,,SoundMST/Pour_C.wav,,,,SIMILAR,GS,,,,,,,,,,,,,,,,,,,,,,,,,,,,,,,,,,,,,,,,,,,,,,,,,,,,,,,,,,,,,,,,,,,,,,,,,,,,,,,return,9.96809, water poutred in to glass,0,66,66,1,1,,
,,,,,,,,,,,,,, 5d331b4c9ce6590019010930,2021-03-24_08h08.31.283,CombinedMST_OA,2020.2.10,Win32,60,,,,,,,,,,,,,,,,,,,SoundMST/Chomp_C.wav,,,,SIMILAR,GS,,,,,,,,,,,,,,,,,,,,,,,,,,,,,,,,,,,,,,,,,,,,,,,,,,,,,,,,,,,,,,,,,,,,,,,,,,,,,,,return,17.411735, person eating an  apple,0,67,67,12,1,,
,,,,,,,,,,,,,, 5d331b4c9ce6590019010930,2021-03-24_08h08.31.283,CombinedMST_OA,2020.2.10,Win32,60,,,,,,,,,,,,,,,,,,,SoundMST/Donkey.wav,,,,SAME,GS,,,,,,,,,,,,,,,,,,,,,,,,,,,,,,,,,,,,,,,,,,,,,,,,,,,,,,,,,,,,,,,,,,,,,,,,,,,,,,,return,19.341245, donkey braying,0,68,68,87,1,,
,,,,,,,,,,,,,, 5d331b4c9ce6590019010930,2021-03-24_08h08.31.283,CombinedMST_OA,2020.2.10,Win32,60,,,,,,,,,,,,,,,,,,,SoundMST/Goat_B.wav,,,,SIMILAR,GS,,,,,,,,,,,,,,,,,,,,,,,,,,,,,,,,,,,,,,,,,,,,,,,,,,,,,,,,,,,,,,,,,,,,,,,,,,,,,,,return,19.87426, goat bleating,0,69,69,44,1,,
,,,,,,,,,,,,,, 5d331b4c9ce6590019010930,2021-03-24_08h08.31.283,CombinedMST_OA,2020.2.10,Win32,60,,,,,,,,,,,,,,,,,,,SoundMST/Whistle_B.wav,,,,SIMILAR,GS,,,,,,,,,,,,,,,,,,,,,,,,,,,,,,,,,,,,,,,,,,,,,,,,,,,,,,,,,,,,,,,,,,,,,,,,,,,,,,,return,18.092145, blown whistle,0,70,70,35,1,,
,,,,,,,,,,,,,, 5d331b4c9ce6590019010930,2021-03-24_08h08.31.283,CombinedMST_OA,2020.2.10,Win32,60,,,,,,,,,,,,,,,,,,,SoundMST/Bagpipe.wav,,,,SAME,GS,,,,,,,,,,,,,,,,,,,,,,,,,,,,,,,,,,,,,,,,,,,,,,,,,,,,,,,,,,,,,,,,,,,,,,,,,,,,,,,return,15.54056, bagpipe playing,0,71,71,69,1,,
,,,,,,,,,,,,,, 5d331b4c9ce6590019010930,2021-03-24_08h08.31.283,CombinedMST_OA,2020.2.10,Win32,60,,,,,,,,,,,,,,,,,,,SoundMST/Laugh_A.wav,,,,SIMILAR,GS,,,,,,,,,,,,,,,,,,,,,,,,,,,,,,,,,,,,,,,,,,,,,,,,,,,,,,,,,,,,,,,,,,,,,,,,,,,,,,,return,6.60784, people laughing,0,72,72,33,1,,
,,,,,,,,,,,,,, 5d331b4c9ce6590019010930,2021-03-24_08h08.31.283,CombinedMST_OA,2020.2.10,Win32,60,,,,,,,,,,,,,,,,,,,SoundMST/Cup.wav,,,,SAME,GS,,,,,,,,,,,,,,,,,,,,,,,,,,,,,,,,,,,,,,,,,,,,,,,,,,,,,,,,,,,,,,,,,,,,,,,,,,,,,,,return,14.120135, cups placed on worktop???,0,73,73,68,1,,
,,,,,,,,,,,,,, 5d331b4c9ce6590019010930,2021-03-24_08h08.31.283,CombinedMST_OA,2020.2.10,Win32,60,,,,,,,,,,,,,,,,,,,SoundMST/Elephant_A.wav,,,,SIMILAR,GS,,,,,,,,,,,,,,,,,,,,,,,,,,,,,,,,,,,,,,,,,,,,,,,,,,,,,,,,,,,,,,,,,,,,,,,,,,,,,,,return,22.336935, elephants trumpeting,0,74,74,0,1,,
,,,,,,,,,,,,,, 5d331b4c9ce6590019010930,2021-03-24_08h08.31.283,CombinedMST_OA,2020.2.10,Win32,60,,,,,,,,,,,,,,,,,,,SoundMST/Bubbles_A.wav,,,,SIMILAR,GS,,,,,,,,,,,,,,,,,,,,,,,,,,,,,,,,,,,,,,,,,,,,,,,,,,,,,,,,,,,,,,,,,,,,,,,,,,,,,,,return,10.66354, water bubbles,0,75,75,45,1,,
,,,,,,,,,,,,,, 5d331b4c9ce6590019010930,2021-03-24_08h08.31.283,CombinedMST_OA,2020.2.10,Win32,60,,,,,,,,,,,,,,,,,,,SoundMST/Mosquito_B.wav,,,,SAME,GS,,,,,,,,,,,,,,,,,,,,,,,,,,,,,,,,,,,,,,,,,,,,,,,,,,,,,,,,,,,,,,,,,,,,,,,,,,,,,,,return,14.978475, bumble bee on speed,0,76,76,53,1,,
,,,,,,,,,,,,,, 5d331b4c9ce6590019010930,2021-03-24_08h08.31.283,CombinedMST_OA,2020.2.10,Win32,60,,,,,,,,,,,,,,,,,,,SoundMST/IceDrop.wav,,,,SAME,GS,,,,,,,,,,,,,,,,,,,,,,,,,,,,,,,,,,,,,,,,,,,,,,,,,,,,,,,,,,,,,,,,,,,,,,,,,,,,,,,return,9.853945, ice cubes in to a glass,0,77,77,57,1,,
,,,,,,,,,,,,,, 5d331b4c9ce6590019010930,2021-03-24_08h08.31.283,CombinedMST_OA,2020.2.10,Win32,60,,,,,,,,,,,,,,,,,,,SoundMST/Bowlingpins.wav,,,,SAME,GS,,,,,,,,,,,,,,,,,,,,,,,,,,,,,,,,,,,,,,,,,,,,,,,,,,,,,,,,,,,,,,,,,,,,,,,,,,,,,,,return,10.351855, ten pin bowling,0,78,78,72,1,,
,,,,,,,,,,,,,, 5d331b4c9ce6590019010930,2021-03-24_08h08.31.283,CombinedMST_OA,2020.2.10,Win32,60,,,,,,,,,,,,,,,,,,,SoundMST/Printer.wav,,,,SAME,GS,,,,,,,,,,,,,,,,,,,,,,,,,,,,,,,,,,,,,,,,,,,,,,,,,,,,,,,,,,,,,,,,,,,,,,,,,,,,,,,return,7.290505, no idea,0,79,79,83,1,,
,,,,,,,,,,,,,, 5d331b4c9ce6590019010930,2021-03-24_08h08.31.283,CombinedMST_OA,2020.2.10,Win32,60,,,,,,,,,,,,,,,,,,,SoundMST/Airplane_B.wav,,,,SAME,GS,,,,,,,,,,,,,,,,,,,,,,,,,,,,,,,,,,,,,,,,,,,,,,,,,,,,,,,,,,,,,,,,,,,,,,,,,,,,,,,return,24.804485, flying aircraft,0,80,80,62,1,,
,,,,,,,,,,,,,, 5d331b4c9ce6590019010930,2021-03-24_08h08.31.283,CombinedMST_OA,2020.2.10,Win32,60,,,,,,,,,,,,,,,,,,,SoundMST/Growl_H.wav,,,,SIMILAR,GS,,,,,,,,,,,,,,,,,,,,,,,,,,,,,,,,,,,,,,,,,,,,,,,,,,,,,,,,,,,,,,,,,,,,,,,,,,,,,,,return,6.197775, lion roar,0,81,81,19,1,,
,,,,,,,,,,,,,, 5d331b4c9ce6590019010930,2021-03-24_08h08.31.283,CombinedMST_OA,2020.2.10,Win32,60,,,,,,,,,,,,,,,,,,,SoundMST/Crow_B.wav,,,,SIMILAR,GS,,,,,,,,,,,,,,,,,,,,,,,,,,,,,,,,,,,,,,,,,,,,,,,,,,,,,,,,,,,,,,,,,,,,,,,,,,,,,,,return,10.842725, bird noises,0,82,82,39,1,,
,,,,,,,,,,,,,, 5d331b4c9ce6590019010930,2021-03-24_08h08.31.283,CombinedMST_OA,2020.2.10,Win32,60,,,,,,,,,,,,,,,,,,,SoundMST/ManWhistle.wav,,,,SAME,GS,,,,,,,,,,,,,,,,,,,,,,,,,,,,,,,,,,,,,,,,,,,,,,,,,,,,,,,,,,,,,,,,,,,,,,,,,,,,,,,return,8.277055, person whistling,0,83,83,67,1,,
,,,,,,,,,,,,,, 5d331b4c9ce6590019010930,2021-03-24_08h08.31.283,CombinedMST_OA,2020.2.10,Win32,60,,,,,,,,,,,,,,,,,,,SoundMST/Cat_A.wav,,,,SAME,GS,,,,,,,,,,,,,,,,,,,,,,,,,,,,,,,,,,,,,,,,,,,,,,,,,,,,,,,,,,,,,,,,,,,,,,,,,,,,,,,return,19.09335, cat meow,0,84,84,65,1,,
,,,,,,,,,,,,,, 5d331b4c9ce6590019010930,2021-03-24_08h08.31.283,CombinedMST_OA,2020.2.10,Win32,60,,,,,,,,,,,,,,,,,,,SoundMST/Steam.wav,,,,SAME,GS,,,,,,,,,,,,,,,,,,,,,,,,,,,,,,,,,,,,,,,,,,,,,,,,,,,,,,,,,,,,,,,,,,,,,,,,,,,,,,,return,7.162715, steam train,0,85,85,86,1,,
,,,,,,,,,,,,,, 5d331b4c9ce6590019010930,2021-03-24_08h08.31.283,CombinedMST_OA,2020.2.10,Win32,60,,,,,,,,,,,,,,,,,,,SoundMST/Helicopter_A.wav,,,,SAME,GS,,,,,,,,,,,,,,,,,,,,,,,,,,,,,,,,,,,,,,,,,,,,,,,,,,,,,,,,,,,,,,,,,,,,,,,,,,,,,,,return,14.203355, helicopter,0,86,86,79,1,,
,,,,,,,,,,,,,, 5d331b4c9ce6590019010930,2021-03-24_08h08.31.283,CombinedMST_OA,2020.2.10,Win32,60,,,,,,,,,,,,,,,,,,,SoundMST/PaperRip.wav,,,,SAME,GS,,,,,,,,,,,,,,,,,,,,,,,,,,,,,,,,,,,,,,,,,,,,,,,,,,,,,,,,,,,,,,,,,,,,,,,,,,,,,,,return,16.144005, sticktape,0,87,87,81,1,,
,,,,,,,,,,,,,, 5d331b4c9ce6590019010930,2021-03-24_08h08.31.283,CombinedMST_OA,2020.2.10,Win32,60,,,,,,,,,,,,,,,,,,,,,,,,,,,,,,,,,,,,,,,,,,,,,,,,,,,,,,,,,,,,,,,,,,,,,,,,,,,,,,,,,,,,,,,,,,,,,,,,,,,,,,,,,,,,,,,space,21.17773
