VolumeContinueKey.keys,VolumeContinueKey.rt,HeadphoneContinueKey.keys,HeadphoneContinueKey.rt,CheckResp.keys,CheckResp.corr,CheckResp.rt,trials_3.thisRepN,trials_3.thisTrialN,trials_3.thisN,trials_3.thisIndex,trials_3.ran,File,Correct,participant,Age,date,expName,psychopyVersion,OS,frameRate,Welcome0ContKey.keys,Welcome0ContKey.rt,ContinueResp.keys,ContinueResp.rt,Wel2ContinueKey.keys,Wel2ContinueKey.rt,WelcomeContinueKey2.keys,WelcomeContinueKey2.rt,Practice_resp.keys,Practice_resp.corr,Practice_resp.rt,PracticeTrials.thisRepN,PracticeTrials.thisTrialN,PracticeTrials.thisN,PracticeTrials.thisIndex,PracticeTrials.ran,SoundFile,Type,StartTast.keys,StartTast.rt,MST_resp.keys,MST_resp.corr,MST_resp.rt,trials.thisRepN,trials.thisTrialN,trials.thisN,trials.thisIndex,trials.ran,WordCorrect,Correct_type,WordType,Condition,Attn1ContKey.keys,Attn1ContKey.rt,AttnCheckResp.text,SyllblCheckContKey.keys,SyllblCheckContKey.rt,SyllblCheckResp.keys,SyllblCheckResp.corr,SyllblCheckResp.rt,trials_2.thisRepN,trials_2.thisTrialN,trials_2.thisN,trials_2.thisIndex,trials_2.ran,Target,Word1,Word2,Word3,WordTask.thisRepN,WordTask.thisTrialN,WordTask.thisN,WordTask.thisIndex,WordTask.ran,Counterbalance.thisRepN,Counterbalance.thisTrialN,Counterbalance.thisN,Counterbalance.thisIndex,Counterbalance.ran,WordOrder,SoundOrder,key_resp.keys,key_resp.rt,WelcomeSound2ContKey.keys,WelcomeSound2ContKey.rt,PracticeSoundKey.keys,PracticeSoundKey.corr,PracticeSoundKey.rt,SoundPracticeLoop.thisRepN,SoundPracticeLoop.thisTrialN,SoundPracticeLoop.thisN,SoundPracticeLoop.thisIndex,SoundPracticeLoop.ran,SoundMST_File,SoundCorrect,Correct2,SoundType,Trial,MSTSoundStrtKey.keys,MSTSoundStrtKey.rt,MSTSoundKey.keys,MSTSoundKey.corr,MSTSoundKey.rt,MSTSoundLoop.thisRepN,MSTSoundLoop.thisTrialN,MSTSoundLoop.thisN,MSTSoundLoop.thisIndex,MSTSoundLoop.ran,AttnCheck2Keys.keys,AttnCheck2Keys.rt,AttnCheck2Resp.text,SoundTask.thisRepN,SoundTask.thisTrialN,SoundTask.thisN,SoundTask.thisIndex,SoundTask.ran,key_resp_4.keys,key_resp_4.rt,GuessSoundIntro2Cont.keys,GuessSoundIntro2Cont.rt,GSSubmit.keys,GSSubmit.rt,GSResponse.text,GuessSoundLoop.thisRepN,GuessSoundLoop.thisTrialN,GuessSoundLoop.thisN,GuessSoundLoop.thisIndex,GuessSoundLoop.ran,GS_File,GS_Type,ExitKey.keys,ExitKey.rt
space,1.72345,space,0.957945,2,1,0.904325,0,0,0,2,1,Headphone/t2_1.wav,2,5cc7443b836ddc0016fec706,61,2021-03-24_21h46.14.303,CombinedMST_OA,2020.2.10,Linux x86_64,60,,,,,,,,,,,,,,,,,,,,,,,,,,,,,,,,,,,,,,,,,,,,,,,,,,,,,,,,,,,,,,,,,,,,,,,,,,,,,,,,,,,,,,,,,,,,,,,,,,,,,,,,,,,,,,,,
,,,,3,1,0.151435,0,1,1,4,1,Headphone/t3_1.wav,3,5cc7443b836ddc0016fec706,61,2021-03-24_21h46.14.303,CombinedMST_OA,2020.2.10,Linux x86_64,60,,,,,,,,,,,,,,,,,,,,,,,,,,,,,,,,,,,,,,,,,,,,,,,,,,,,,,,,,,,,,,,,,,,,,,,,,,,,,,,,,,,,,,,,,,,,,,,,,,,,,,,,,,,,,,,,
,,,,1,1,0.10377,0,2,2,0,1,Headphone/t1_1.wav,1,5cc7443b836ddc0016fec706,61,2021-03-24_21h46.14.303,CombinedMST_OA,2020.2.10,Linux x86_64,60,,,,,,,,,,,,,,,,,,,,,,,,,,,,,,,,,,,,,,,,,,,,,,,,,,,,,,,,,,,,,,,,,,,,,,,,,,,,,,,,,,,,,,,,,,,,,,,,,,,,,,,,,,,,,,,,
,,,,2,1,0.29523,0,3,3,3,1,Headphone/t2_2.wav,2,5cc7443b836ddc0016fec706,61,2021-03-24_21h46.14.303,CombinedMST_OA,2020.2.10,Linux x86_64,60,,,,,,,,,,,,,,,,,,,,,,,,,,,,,,,,,,,,,,,,,,,,,,,,,,,,,,,,,,,,,,,,,,,,,,,,,,,,,,,,,,,,,,,,,,,,,,,,,,,,,,,,,,,,,,,,
,,,,1,1,0.18295,0,4,4,1,1,Headphone/t1_2.wav,1,5cc7443b836ddc0016fec706,61,2021-03-24_21h46.14.303,CombinedMST_OA,2020.2.10,Linux x86_64,60,,,,,,,,,,,,,,,,,,,,,,,,,,,,,,,,,,,,,,,,,,,,,,,,,,,,,,,,,,,,,,,,,,,,,,,,,,,,,,,,,,,,,,,,,,,,,,,,,,,,,,,,,,,,,,,,
,,,,3,1,0.16753,0,5,5,5,1,Headphone/t3_2.wav,3,5cc7443b836ddc0016fec706,61,2021-03-24_21h46.14.303,CombinedMST_OA,2020.2.10,Linux x86_64,60,,,,,,,,,,,,,,,,,,,,,,,,,,,,,,,,,,,,,,,,,,,,,,,,,,,,,,,,,,,,,,,,,,,,,,,,,,,,,,,,,,,,,,,,,,,,,,,,,,,,,,,,,,,,,,,,
,,,,,,,,,,,,,2,5cc7443b836ddc0016fec706,61,2021-03-24_21h46.14.303,CombinedMST_OA,2020.2.10,Linux x86_64,60,space,1.31318,space,9.811205,space,6.79485,space,4.25795,2,1,5.39259,0,0,0,0,1,Training/FO_YI_LAY.wav,NEW,,,,,,,,,,,,,,,,,,,,,,,,,,,,,,,,,,,,,,,,,,,,,,,,,,,,,,,,,,,,,,,,,,,,,,,,,,,,,,,,,,,,,,,,,,,,,,
,,,,,,,,,,,,,1,5cc7443b836ddc0016fec706,61,2021-03-24_21h46.14.303,CombinedMST_OA,2020.2.10,Linux x86_64,60,,,,,,,,,1,1,3.324175,0,1,1,1,1,Training/FO_YI_LAY.wav,OLD,,,,,,,,,,,,,,,,,,,,,,,,,,,,,,,,,,,,,,,,,,,,,,,,,,,,,,,,,,,,,,,,,,,,,,,,,,,,,,,,,,,,,,,,,,,,,,
,,,,,,,,,,,,,2,5cc7443b836ddc0016fec706,61,2021-03-24_21h46.14.303,CombinedMST_OA,2020.2.10,Linux x86_64,60,,,,,,,,,2,1,2.361545,0,2,2,2,1,Training/YO_BU_JAY.wav,NEW,,,,,,,,,,,,,,,,,,,,,,,,,,,,,,,,,,,,,,,,,,,,,,,,,,,,,,,,,,,,,,,,,,,,,,,,,,,,,,,,,,,,,,,,,,,,,,
,,,,,,,,,,,,,2,5cc7443b836ddc0016fec706,61,2021-03-24_21h46.14.303,CombinedMST_OA,2020.2.10,Linux x86_64,60,,,,,,,,,2,1,2.156895,0,3,3,3,1,Training/JAY_YO_BU.wav,SIMILAR,,,,,,,,,,,,,,,,,,,,,,,,,,,,,,,,,,,,,,,,,,,,,,,,,,,,,,,,,,,,,,,,,,,,,,,,,,,,,,,,,,,,,,,,,,,,,,
,,,,,,,,,,,,,1,5cc7443b836ddc0016fec706,61,2021-03-24_21h46.14.303,CombinedMST_OA,2020.2.10,Linux x86_64,60,,,,,,,,,1,1,1.68202,0,4,4,4,1,Training/FO_YI_LAY.wav,OLD,,,,,,,,,,,,,,,,,,,,,,,,,,,,,,,,,,,,,,,,,,,,,,,,,,,,,,,,,,,,,,,,,,,,,,,,,,,,,,,,,,,,,,,,,,,,,,
,,,,,,,,,,,,TestWords/HA_SI_JAI.wav,,5cc7443b836ddc0016fec706,61,2021-03-24_21h46.14.303,CombinedMST_OA,2020.2.10,Linux x86_64,60,,,,,,,,,,,,,,,,,,,space,18.11418,2,1,5.31038,0,0,0,0,1,2,NEW,NEW,C,,,,,,,,,,,,,,,,,,,,,,,,,,,,,,,,,,,,,,,,,,,,,,,,,,,,,,,,,,,,,,,,,,,,,,,,,,,,,,,,
,,,,,,,,,,,,TestWords/NO_WA_BAY.wav,,5cc7443b836ddc0016fec706,61,2021-03-24_21h46.14.303,CombinedMST_OA,2020.2.10,Linux x86_64,60,,,,,,,,,,,,,,,,,,,,,2,1,1.51653,0,1,1,1,1,2,NEW,NEW,C,,,,,,,,,,,,,,,,,,,,,,,,,,,,,,,,,,,,,,,,,,,,,,,,,,,,,,,,,,,,,,,,,,,,,,,,,,,,,,,,
,,,,,,,,,,,,TestWords/KO_SU_FAI.wav,,5cc7443b836ddc0016fec706,61,2021-03-24_21h46.14.303,CombinedMST_OA,2020.2.10,Linux x86_64,60,,,,,,,,,,,,,,,,,,,,,2,1,1.172495,0,2,2,2,1,2,NEW,NEW,C,,,,,,,,,,,,,,,,,,,,,,,,,,,,,,,,,,,,,,,,,,,,,,,,,,,,,,,,,,,,,,,,,,,,,,,,,,,,,,,,
,,,,,,,,,,,,TestWords/TAI_SA_GI.wav,,5cc7443b836ddc0016fec706,61,2021-03-24_21h46.14.303,CombinedMST_OA,2020.2.10,Linux x86_64,60,,,,,,,,,,,,,,,,,,,,,2,1,2.347675,0,3,3,3,1,2,NEW,NEW,C,,,,,,,,,,,,,,,,,,,,,,,,,,,,,,,,,,,,,,,,,,,,,,,,,,,,,,,,,,,,,,,,,,,,,,,,,,,,,,,,
,,,,,,,,,,,,TestWords/HO_NAY_VA.wav,,5cc7443b836ddc0016fec706,61,2021-03-24_21h46.14.303,CombinedMST_OA,2020.2.10,Linux x86_64,60,,,,,,,,,,,,,,,,,,,,,2,1,0.780955,0,4,4,4,1,2,NEW,NEW,C,,,,,,,,,,,,,,,,,,,,,,,,,,,,,,,,,,,,,,,,,,,,,,,,,,,,,,,,,,,,,,,,,,,,,,,,,,,,,,,,
,,,,,,,,,,,,TestWords/KAI_LAY_TA.wav,,5cc7443b836ddc0016fec706,61,2021-03-24_21h46.14.303,CombinedMST_OA,2020.2.10,Linux x86_64,60,,,,,,,,,,,,,,,,,,,,,2,1,0.952195,0,5,5,5,1,2,NEW,NEW,C,,,,,,,,,,,,,,,,,,,,,,,,,,,,,,,,,,,,,,,,,,,,,,,,,,,,,,,,,,,,,,,,,,,,,,,,,,,,,,,,
,,,,,,,,,,,,TestWords/FI_GU_CHA.wav,,5cc7443b836ddc0016fec706,61,2021-03-24_21h46.14.303,CombinedMST_OA,2020.2.10,Linux x86_64,60,,,,,,,,,,,,,,,,,,,,,2,1,1.077975,0,6,6,6,1,2,NEW,NEW,C,,,,,,,,,,,,,,,,,,,,,,,,,,,,,,,,,,,,,,,,,,,,,,,,,,,,,,,,,,,,,,,,,,,,,,,,,,,,,,,,
,,,,,,,,,,,,TestWords/GI_SA_TAI.wav,,5cc7443b836ddc0016fec706,61,2021-03-24_21h46.14.303,CombinedMST_OA,2020.2.10,Linux x86_64,60,,,,,,,,,,,,,,,,,,,,,2,1,0.62147,0,7,7,7,1,2,NEW,SIMILAR,C,,,,,,,,,,,,,,,,,,,,,,,,,,,,,,,,,,,,,,,,,,,,,,,,,,,,,,,,,,,,,,,,,,,,,,,,,,,,,,,,
,,,,,,,,,,,,TestWords/LU_HAI_BO.wav,,5cc7443b836ddc0016fec706,61,2021-03-24_21h46.14.303,CombinedMST_OA,2020.2.10,Linux x86_64,60,,,,,,,,,,,,,,,,,,,,,2,1,0.65357,0,8,8,8,1,2,NEW,NEW,C,,,,,,,,,,,,,,,,,,,,,,,,,,,,,,,,,,,,,,,,,,,,,,,,,,,,,,,,,,,,,,,,,,,,,,,,,,,,,,,,
,,,,,,,,,,,,TestWords/KO_SU_FAI.wav,,5cc7443b836ddc0016fec706,61,2021-03-24_21h46.14.303,CombinedMST_OA,2020.2.10,Linux x86_64,60,,,,,,,,,,,,,,,,,,,,,2,0,1.518245,0,9,9,9,1,1,OLD,OLD,C,,,,,,,,,,,,,,,,,,,,,,,,,,,,,,,,,,,,,,,,,,,,,,,,,,,,,,,,,,,,,,,,,,,,,,,,,,,,,,,,
,,,,,,,,,,,,TestWords/DAI_RU_CHI.wav,,5cc7443b836ddc0016fec706,61,2021-03-24_21h46.14.303,CombinedMST_OA,2020.2.10,Linux x86_64,60,,,,,,,,,,,,,,,,,,,,,2,1,2.12875,0,10,10,10,1,2,NEW,NEW,C,,,,,,,,,,,,,,,,,,,,,,,,,,,,,,,,,,,,,,,,,,,,,,,,,,,,,,,,,,,,,,,,,,,,,,,,,,,,,,,,
,,,,,,,,,,,,TestWords/CHU_LA_PAY.wav,,5cc7443b836ddc0016fec706,61,2021-03-24_21h46.14.303,CombinedMST_OA,2020.2.10,Linux x86_64,60,,,,,,,,,,,,,,,,,,,,,2,1,1.43734,0,11,11,11,1,2,NEW,NEW,C,,,,,,,,,,,,,,,,,,,,,,,,,,,,,,,,,,,,,,,,,,,,,,,,,,,,,,,,,,,,,,,,,,,,,,,,,,,,,,,,
,,,,,,,,,,,,TestWords/KAI_LAY_TA.wav,,5cc7443b836ddc0016fec706,61,2021-03-24_21h46.14.303,CombinedMST_OA,2020.2.10,Linux x86_64,60,,,,,,,,,,,,,,,,,,,,,2,0,1.863285,0,12,12,12,1,1,OLD,OLD,C,,,,,,,,,,,,,,,,,,,,,,,,,,,,,,,,,,,,,,,,,,,,,,,,,,,,,,,,,,,,,,,,,,,,,,,,,,,,,,,,
,,,,,,,,,,,,TestWords/GI_TAI_SA.wav,,5cc7443b836ddc0016fec706,61,2021-03-24_21h46.14.303,CombinedMST_OA,2020.2.10,Linux x86_64,60,,,,,,,,,,,,,,,,,,,,,2,1,1.92171,0,13,13,13,1,2,NEW,SIMILAR,C,,,,,,,,,,,,,,,,,,,,,,,,,,,,,,,,,,,,,,,,,,,,,,,,,,,,,,,,,,,,,,,,,,,,,,,,,,,,,,,,
,,,,,,,,,,,,TestWords/DAY_PU_MO.wav,,5cc7443b836ddc0016fec706,61,2021-03-24_21h46.14.303,CombinedMST_OA,2020.2.10,Linux x86_64,60,,,,,,,,,,,,,,,,,,,,,2,1,2.058815,0,14,14,14,1,2,NEW,NEW,C,,,,,,,,,,,,,,,,,,,,,,,,,,,,,,,,,,,,,,,,,,,,,,,,,,,,,,,,,,,,,,,,,,,,,,,,,,,,,,,,
,,,,,,,,,,,,TestWords/KO_SU_FAI.wav,,5cc7443b836ddc0016fec706,61,2021-03-24_21h46.14.303,CombinedMST_OA,2020.2.10,Linux x86_64,60,,,,,,,,,,,,,,,,,,,,,2,0,2.417345,0,15,15,15,1,1,OLD,OLD,C,,,,,,,,,,,,,,,,,,,,,,,,,,,,,,,,,,,,,,,,,,,,,,,,,,,,,,,,,,,,,,,,,,,,,,,,,,,,,,,,
,,,,,,,,,,,,TestWords/SA_TAI_GI.wav,,5cc7443b836ddc0016fec706,61,2021-03-24_21h46.14.303,CombinedMST_OA,2020.2.10,Linux x86_64,60,,,,,,,,,,,,,,,,,,,,,2,1,2.348425,0,16,16,16,1,2,NEW,SIMILAR,C,,,,,,,,,,,,,,,,,,,,,,,,,,,,,,,,,,,,,,,,,,,,,,,,,,,,,,,,,,,,,,,,,,,,,,,,,,,,,,,,
,,,,,,,,,,,,TestWords/RAY_PA_TI.wav,,5cc7443b836ddc0016fec706,61,2021-03-24_21h46.14.303,CombinedMST_OA,2020.2.10,Linux x86_64,60,,,,,,,,,,,,,,,,,,,,,2,1,2.008895,0,17,17,17,1,2,NEW,NEW,C,,,,,,,,,,,,,,,,,,,,,,,,,,,,,,,,,,,,,,,,,,,,,,,,,,,,,,,,,,,,,,,,,,,,,,,,,,,,,,,,
,,,,,,,,,,,,TestWords/KAI_LAY_TA.wav,,5cc7443b836ddc0016fec706,61,2021-03-24_21h46.14.303,CombinedMST_OA,2020.2.10,Linux x86_64,60,,,,,,,,,,,,,,,,,,,,,2,0,1.36733,0,18,18,18,1,1,OLD,OLD,C,,,,,,,,,,,,,,,,,,,,,,,,,,,,,,,,,,,,,,,,,,,,,,,,,,,,,,,,,,,,,,,,,,,,,,,,,,,,,,,,
,,,,,,,,,,,,TestWords/DAY_MO_PU.wav,,5cc7443b836ddc0016fec706,61,2021-03-24_21h46.14.303,CombinedMST_OA,2020.2.10,Linux x86_64,60,,,,,,,,,,,,,,,,,,,,,2,1,1.0942,0,19,19,19,1,2,NEW,SIMILAR,C,,,,,,,,,,,,,,,,,,,,,,,,,,,,,,,,,,,,,,,,,,,,,,,,,,,,,,,,,,,,,,,,,,,,,,,,,,,,,,,,
,,,,,,,,,,,,TestWords/DAI_RU_CHI.wav,,5cc7443b836ddc0016fec706,61,2021-03-24_21h46.14.303,CombinedMST_OA,2020.2.10,Linux x86_64,60,,,,,,,,,,,,,,,,,,,,,2,0,1.46643,0,20,20,20,1,1,OLD,OLD,C,,,,,,,,,,,,,,,,,,,,,,,,,,,,,,,,,,,,,,,,,,,,,,,,,,,,,,,,,,,,,,,,,,,,,,,,,,,,,,,,
,,,,,,,,,,,,TestWords/SA_GI_TAI.wav,,5cc7443b836ddc0016fec706,61,2021-03-24_21h46.14.303,CombinedMST_OA,2020.2.10,Linux x86_64,60,,,,,,,,,,,,,,,,,,,,,2,1,1.78339,0,21,21,21,1,2,NEW,SIMILAR,C,,,,,,,,,,,,,,,,,,,,,,,,,,,,,,,,,,,,,,,,,,,,,,,,,,,,,,,,,,,,,,,,,,,,,,,,,,,,,,,,
,,,,,,,,,,,,TestWords/KO_SU_FAI.wav,,5cc7443b836ddc0016fec706,61,2021-03-24_21h46.14.303,CombinedMST_OA,2020.2.10,Linux x86_64,60,,,,,,,,,,,,,,,,,,,,,2,0,1.620485,0,22,22,22,1,1,OLD,OLD,C,,,,,,,,,,,,,,,,,,,,,,,,,,,,,,,,,,,,,,,,,,,,,,,,,,,,,,,,,,,,,,,,,,,,,,,,,,,,,,,,
,,,,,,,,,,,,TestWords/KAI_LAY_TA.wav,,5cc7443b836ddc0016fec706,61,2021-03-24_21h46.14.303,CombinedMST_OA,2020.2.10,Linux x86_64,60,,,,,,,,,,,,,,,,,,,,,2,0,1.03456,0,23,23,23,1,1,OLD,OLD,C,,,,,,,,,,,,,,,,,,,,,,,,,,,,,,,,,,,,,,,,,,,,,,,,,,,,,,,,,,,,,,,,,,,,,,,,,,,,,,,,
,,,,,,,,,,,,TestWords/RAY_PA_TI.wav,,5cc7443b836ddc0016fec706,61,2021-03-24_21h46.14.303,CombinedMST_OA,2020.2.10,Linux x86_64,60,,,,,,,,,,,,,,,,,,,,,1,1,1.262615,0,24,24,24,1,1,OLD,OLD,C,,,,,,,,,,,,,,,,,,,,,,,,,,,,,,,,,,,,,,,,,,,,,,,,,,,,,,,,,,,,,,,,,,,,,,,,,,,,,,,,
,,,,,,,,,,,,TestWords/MO_DAY_PU.wav,,5cc7443b836ddc0016fec706,61,2021-03-24_21h46.14.303,CombinedMST_OA,2020.2.10,Linux x86_64,60,,,,,,,,,,,,,,,,,,,,,2,1,1.15223,0,25,25,25,1,2,NEW,SIMILAR,C,,,,,,,,,,,,,,,,,,,,,,,,,,,,,,,,,,,,,,,,,,,,,,,,,,,,,,,,,,,,,,,,,,,,,,,,,,,,,,,,
,,,,,,,,,,,,TestWords/DAI_RU_CHI.wav,,5cc7443b836ddc0016fec706,61,2021-03-24_21h46.14.303,CombinedMST_OA,2020.2.10,Linux x86_64,60,,,,,,,,,,,,,,,,,,,,,2,0,1.149,0,26,26,26,1,1,OLD,OLD,C,,,,,,,,,,,,,,,,,,,,,,,,,,,,,,,,,,,,,,,,,,,,,,,,,,,,,,,,,,,,,,,,,,,,,,,,,,,,,,,,
,,,,,,,,,,,,TestWords/TAI_GI_SA.wav,,5cc7443b836ddc0016fec706,61,2021-03-24_21h46.14.303,CombinedMST_OA,2020.2.10,Linux x86_64,60,,,,,,,,,,,,,,,,,,,,,2,1,1.04998,0,27,27,27,1,2,NEW,SIMILAR,C,,,,,,,,,,,,,,,,,,,,,,,,,,,,,,,,,,,,,,,,,,,,,,,,,,,,,,,,,,,,,,,,,,,,,,,,,,,,,,,,
,,,,,,,,,,,,TestWords/GA_MU_ZI.wav,,5cc7443b836ddc0016fec706,61,2021-03-24_21h46.14.303,CombinedMST_OA,2020.2.10,Linux x86_64,60,,,,,,,,,,,,,,,,,,,,,2,1,1.258405,0,28,28,28,1,2,NEW,NEW,C,,,,,,,,,,,,,,,,,,,,,,,,,,,,,,,,,,,,,,,,,,,,,,,,,,,,,,,,,,,,,,,,,,,,,,,,,,,,,,,,
,,,,,,,,,,,,TestWords/BA_KAY_LI.wav,,5cc7443b836ddc0016fec706,61,2021-03-24_21h46.14.303,CombinedMST_OA,2020.2.10,Linux x86_64,60,,,,,,,,,,,,,,,,,,,,,2,1,0.669525,0,29,29,29,1,2,NEW,NEW,C,,,,,,,,,,,,,,,,,,,,,,,,,,,,,,,,,,,,,,,,,,,,,,,,,,,,,,,,,,,,,,,,,,,,,,,,,,,,,,,,
,,,,,,,,,,,,TestWords/RAY_PA_TI.wav,,5cc7443b836ddc0016fec706,61,2021-03-24_21h46.14.303,CombinedMST_OA,2020.2.10,Linux x86_64,60,,,,,,,,,,,,,,,,,,,,,1,1,0.480365,0,30,30,30,1,1,OLD,OLD,C,,,,,,,,,,,,,,,,,,,,,,,,,,,,,,,,,,,,,,,,,,,,,,,,,,,,,,,,,,,,,,,,,,,,,,,,,,,,,,,,
,,,,,,,,,,,,TestWords/KO_SU_FAI.wav,,5cc7443b836ddc0016fec706,61,2021-03-24_21h46.14.303,CombinedMST_OA,2020.2.10,Linux x86_64,60,,,,,,,,,,,,,,,,,,,,,2,0,0.61038,0,31,31,31,1,1,OLD,OLD,C,,,,,,,,,,,,,,,,,,,,,,,,,,,,,,,,,,,,,,,,,,,,,,,,,,,,,,,,,,,,,,,,,,,,,,,,,,,,,,,,
,,,,,,,,,,,,TestWords/PU_DAY_MO.wav,,5cc7443b836ddc0016fec706,61,2021-03-24_21h46.14.303,CombinedMST_OA,2020.2.10,Linux x86_64,60,,,,,,,,,,,,,,,,,,,,,2,1,1.047765,0,32,32,32,1,2,NEW,SIMILAR,C,,,,,,,,,,,,,,,,,,,,,,,,,,,,,,,,,,,,,,,,,,,,,,,,,,,,,,,,,,,,,,,,,,,,,,,,,,,,,,,,
,,,,,,,,,,,,TestWords/KAI_LAY_TA.wav,,5cc7443b836ddc0016fec706,61,2021-03-24_21h46.14.303,CombinedMST_OA,2020.2.10,Linux x86_64,60,,,,,,,,,,,,,,,,,,,,,2,0,1.131415,0,33,33,33,1,1,OLD,OLD,C,,,,,,,,,,,,,,,,,,,,,,,,,,,,,,,,,,,,,,,,,,,,,,,,,,,,,,,,,,,,,,,,,,,,,,,,,,,,,,,,
,,,,,,,,,,,,TestWords/DAI_RU_CHI.wav,,5cc7443b836ddc0016fec706,61,2021-03-24_21h46.14.303,CombinedMST_OA,2020.2.10,Linux x86_64,60,,,,,,,,,,,,,,,,,,,,,2,0,0.90561,0,34,34,34,1,1,OLD,OLD,C,,,,,,,,,,,,,,,,,,,,,,,,,,,,,,,,,,,,,,,,,,,,,,,,,,,,,,,,,,,,,,,,,,,,,,,,,,,,,,,,
,,,,,,,,,,,,TestWords/KAY_LI_BA.wav,,5cc7443b836ddc0016fec706,61,2021-03-24_21h46.14.303,CombinedMST_OA,2020.2.10,Linux x86_64,60,,,,,,,,,,,,,,,,,,,,,2,1,0.636355,0,35,35,35,1,2,NEW,SIMILAR,C,,,,,,,,,,,,,,,,,,,,,,,,,,,,,,,,,,,,,,,,,,,,,,,,,,,,,,,,,,,,,,,,,,,,,,,,,,,,,,,,
,,,,,,,,,,,,TestWords/GA_MU_ZI.wav,,5cc7443b836ddc0016fec706,61,2021-03-24_21h46.14.303,CombinedMST_OA,2020.2.10,Linux x86_64,60,,,,,,,,,,,,,,,,,,,,,2,0,0.517235,0,36,36,36,1,1,OLD,OLD,C,,,,,,,,,,,,,,,,,,,,,,,,,,,,,,,,,,,,,,,,,,,,,,,,,,,,,,,,,,,,,,,,,,,,,,,,,,,,,,,,
,,,,,,,,,,,,TestWords/RAY_PA_TI.wav,,5cc7443b836ddc0016fec706,61,2021-03-24_21h46.14.303,CombinedMST_OA,2020.2.10,Linux x86_64,60,,,,,,,,,,,,,,,,,,,,,1,1,0.102685,0,37,37,37,1,1,OLD,OLD,C,,,,,,,,,,,,,,,,,,,,,,,,,,,,,,,,,,,,,,,,,,,,,,,,,,,,,,,,,,,,,,,,,,,,,,,,,,,,,,,,
,,,,,,,,,,,,TestWords/PU_MO_DAY.wav,,5cc7443b836ddc0016fec706,61,2021-03-24_21h46.14.303,CombinedMST_OA,2020.2.10,Linux x86_64,60,,,,,,,,,,,,,,,,,,,,,2,1,0.661345,0,38,38,38,1,2,NEW,SIMILAR,C,,,,,,,,,,,,,,,,,,,,,,,,,,,,,,,,,,,,,,,,,,,,,,,,,,,,,,,,,,,,,,,,,,,,,,,,,,,,,,,,
,,,,,,,,,,,,TestWords/VAI_HO_LA.wav,,5cc7443b836ddc0016fec706,61,2021-03-24_21h46.14.303,CombinedMST_OA,2020.2.10,Linux x86_64,60,,,,,,,,,,,,,,,,,,,,,2,1,0.48965,0,39,39,39,1,2,NEW,NEW,C,,,,,,,,,,,,,,,,,,,,,,,,,,,,,,,,,,,,,,,,,,,,,,,,,,,,,,,,,,,,,,,,,,,,,,,,,,,,,,,,
,,,,,,,,,,,,TestWords/KAI_LAY_TA.wav,,5cc7443b836ddc0016fec706,61,2021-03-24_21h46.14.303,CombinedMST_OA,2020.2.10,Linux x86_64,60,,,,,,,,,,,,,,,,,,,,,1,1,0.805865,0,40,40,40,1,1,OLD,OLD,C,,,,,,,,,,,,,,,,,,,,,,,,,,,,,,,,,,,,,,,,,,,,,,,,,,,,,,,,,,,,,,,,,,,,,,,,,,,,,,,,
,,,,,,,,,,,,TestWords/KO_SU_FAI.wav,,5cc7443b836ddc0016fec706,61,2021-03-24_21h46.14.303,CombinedMST_OA,2020.2.10,Linux x86_64,60,,,,,,,,,,,,,,,,,,,,,1,1,0.59896,0,41,41,41,1,1,OLD,OLD,C,,,,,,,,,,,,,,,,,,,,,,,,,,,,,,,,,,,,,,,,,,,,,,,,,,,,,,,,,,,,,,,,,,,,,,,,,,,,,,,,
,,,,,,,,,,,,TestWords/DAI_RU_CHI.wav,,5cc7443b836ddc0016fec706,61,2021-03-24_21h46.14.303,CombinedMST_OA,2020.2.10,Linux x86_64,60,,,,,,,,,,,,,,,,,,,,,1,1,0.600195,0,42,42,42,1,1,OLD,OLD,C,,,,,,,,,,,,,,,,,,,,,,,,,,,,,,,,,,,,,,,,,,,,,,,,,,,,,,,,,,,,,,,,,,,,,,,,,,,,,,,,
,,,,,,,,,,,,TestWords/WAI_VU_NA.wav,,5cc7443b836ddc0016fec706,61,2021-03-24_21h46.14.303,CombinedMST_OA,2020.2.10,Linux x86_64,60,,,,,,,,,,,,,,,,,,,,,2,1,0.427105,0,43,43,43,1,2,NEW,NEW,C,,,,,,,,,,,,,,,,,,,,,,,,,,,,,,,,,,,,,,,,,,,,,,,,,,,,,,,,,,,,,,,,,,,,,,,,,,,,,,,,
,,,,,,,,,,,,TestWords/GA_MU_ZI.wav,,5cc7443b836ddc0016fec706,61,2021-03-24_21h46.14.303,CombinedMST_OA,2020.2.10,Linux x86_64,60,,,,,,,,,,,,,,,,,,,,,2,0,0.590135,0,44,44,44,1,1,OLD,OLD,C,,,,,,,,,,,,,,,,,,,,,,,,,,,,,,,,,,,,,,,,,,,,,,,,,,,,,,,,,,,,,,,,,,,,,,,,,,,,,,,,
,,,,,,,,,,,,TestWords/KAY_BA_LI.wav,,5cc7443b836ddc0016fec706,61,2021-03-24_21h46.14.303,CombinedMST_OA,2020.2.10,Linux x86_64,60,,,,,,,,,,,,,,,,,,,,,2,1,0.834385,0,45,45,45,1,2,NEW,SIMILAR,C,,,,,,,,,,,,,,,,,,,,,,,,,,,,,,,,,,,,,,,,,,,,,,,,,,,,,,,,,,,,,,,,,,,,,,,,,,,,,,,,
,,,,,,,,,,,,TestWords/MO_PU_DAY.wav,,5cc7443b836ddc0016fec706,61,2021-03-24_21h46.14.303,CombinedMST_OA,2020.2.10,Linux x86_64,60,,,,,,,,,,,,,,,,,,,,,2,1,0.37325,0,46,46,46,1,2,NEW,SIMILAR,C,,,,,,,,,,,,,,,,,,,,,,,,,,,,,,,,,,,,,,,,,,,,,,,,,,,,,,,,,,,,,,,,,,,,,,,,,,,,,,,,
,,,,,,,,,,,,TestWords/RAY_PA_TI.wav,,5cc7443b836ddc0016fec706,61,2021-03-24_21h46.14.303,CombinedMST_OA,2020.2.10,Linux x86_64,60,,,,,,,,,,,,,,,,,,,,,1,1,0.100375,0,47,47,47,1,1,OLD,OLD,C,,,,,,,,,,,,,,,,,,,,,,,,,,,,,,,,,,,,,,,,,,,,,,,,,,,,,,,,,,,,,,,,,,,,,,,,,,,,,,,,
,,,,,,,,,,,,TestWords/KAI_LAY_TA.wav,,5cc7443b836ddc0016fec706,61,2021-03-24_21h46.14.303,CombinedMST_OA,2020.2.10,Linux x86_64,60,,,,,,,,,,,,,,,,,,,,,1,1,1.358295,0,48,48,48,1,1,OLD,OLD,C,,,,,,,,,,,,,,,,,,,,,,,,,,,,,,,,,,,,,,,,,,,,,,,,,,,,,,,,,,,,,,,,,,,,,,,,,,,,,,,,
,,,,,,,,,,,,TestWords/WAI_NA_VU.wav,,5cc7443b836ddc0016fec706,61,2021-03-24_21h46.14.303,CombinedMST_OA,2020.2.10,Linux x86_64,60,,,,,,,,,,,,,,,,,,,,,2,1,0.434655,0,49,49,49,1,2,NEW,SIMILAR,C,,,,,,,,,,,,,,,,,,,,,,,,,,,,,,,,,,,,,,,,,,,,,,,,,,,,,,,,,,,,,,,,,,,,,,,,,,,,,,,,
,,,,,,,,,,,,TestWords/KO_SU_FAI.wav,,5cc7443b836ddc0016fec706,61,2021-03-24_21h46.14.303,CombinedMST_OA,2020.2.10,Linux x86_64,60,,,,,,,,,,,,,,,,,,,,,1,1,0.757865,0,50,50,50,1,1,OLD,OLD,C,,,,,,,,,,,,,,,,,,,,,,,,,,,,,,,,,,,,,,,,,,,,,,,,,,,,,,,,,,,,,,,,,,,,,,,,,,,,,,,,
,,,,,,,,,,,,TestWords/GA_MU_ZI.wav,,5cc7443b836ddc0016fec706,61,2021-03-24_21h46.14.303,CombinedMST_OA,2020.2.10,Linux x86_64,60,,,,,,,,,,,,,,,,,,,,,2,0,0.289095,0,51,51,51,1,1,OLD,OLD,C,,,,,,,,,,,,,,,,,,,,,,,,,,,,,,,,,,,,,,,,,,,,,,,,,,,,,,,,,,,,,,,,,,,,,,,,,,,,,,,,
,,,,,,,,,,,,TestWords/NU_CHAY_SO.wav,,5cc7443b836ddc0016fec706,61,2021-03-24_21h46.14.303,CombinedMST_OA,2020.2.10,Linux x86_64,60,,,,,,,,,,,,,,,,,,,,,2,1,0.347825,0,52,52,52,1,2,NEW,NEW,C,,,,,,,,,,,,,,,,,,,,,,,,,,,,,,,,,,,,,,,,,,,,,,,,,,,,,,,,,,,,,,,,,,,,,,,,,,,,,,,,
,,,,,,,,,,,,TestWords/DAI_RU_CHI.wav,,5cc7443b836ddc0016fec706,61,2021-03-24_21h46.14.303,CombinedMST_OA,2020.2.10,Linux x86_64,60,,,,,,,,,,,,,,,,,,,,,2,0,0.29358,0,53,53,53,1,1,OLD,OLD,C,,,,,,,,,,,,,,,,,,,,,,,,,,,,,,,,,,,,,,,,,,,,,,,,,,,,,,,,,,,,,,,,,,,,,,,,,,,,,,,,
,,,,,,,,,,,,TestWords/VU_NA_WAI.wav,,5cc7443b836ddc0016fec706,61,2021-03-24_21h46.14.303,CombinedMST_OA,2020.2.10,Linux x86_64,60,,,,,,,,,,,,,,,,,,,,,2,1,0.300905,0,54,54,54,1,2,NEW,SIMILAR,C,,,,,,,,,,,,,,,,,,,,,,,,,,,,,,,,,,,,,,,,,,,,,,,,,,,,,,,,,,,,,,,,,,,,,,,,,,,,,,,,
,,,,,,,,,,,,TestWords/RAY_PA_TI.wav,,5cc7443b836ddc0016fec706,61,2021-03-24_21h46.14.303,CombinedMST_OA,2020.2.10,Linux x86_64,60,,,,,,,,,,,,,,,,,,,,,1,1,0.42179,0,55,55,55,1,1,OLD,OLD,C,,,,,,,,,,,,,,,,,,,,,,,,,,,,,,,,,,,,,,,,,,,,,,,,,,,,,,,,,,,,,,,,,,,,,,,,,,,,,,,,
,,,,,,,,,,,,TestWords/KAI_LAY_TA.wav,,5cc7443b836ddc0016fec706,61,2021-03-24_21h46.14.303,CombinedMST_OA,2020.2.10,Linux x86_64,60,,,,,,,,,,,,,,,,,,,,,1,1,0.82191,0,56,56,56,1,1,OLD,OLD,C,,,,,,,,,,,,,,,,,,,,,,,,,,,,,,,,,,,,,,,,,,,,,,,,,,,,,,,,,,,,,,,,,,,,,,,,,,,,,,,,
,,,,,,,,,,,,TestWords/LI_BA_KAY.wav,,5cc7443b836ddc0016fec706,61,2021-03-24_21h46.14.303,CombinedMST_OA,2020.2.10,Linux x86_64,60,,,,,,,,,,,,,,,,,,,,,2,1,0.351085,0,57,57,57,1,2,NEW,SIMILAR,C,,,,,,,,,,,,,,,,,,,,,,,,,,,,,,,,,,,,,,,,,,,,,,,,,,,,,,,,,,,,,,,,,,,,,,,,,,,,,,,,
,,,,,,,,,,,,TestWords/GA_MU_ZI.wav,,5cc7443b836ddc0016fec706,61,2021-03-24_21h46.14.303,CombinedMST_OA,2020.2.10,Linux x86_64,60,,,,,,,,,,,,,,,,,,,,,2,0,0.46755,0,58,58,58,1,1,OLD,OLD,C,,,,,,,,,,,,,,,,,,,,,,,,,,,,,,,,,,,,,,,,,,,,,,,,,,,,,,,,,,,,,,,,,,,,,,,,,,,,,,,,
,,,,,,,,,,,,TestWords/WAI_RO_JU.wav,,5cc7443b836ddc0016fec706,61,2021-03-24_21h46.14.303,CombinedMST_OA,2020.2.10,Linux x86_64,60,,,,,,,,,,,,,,,,,,,,,2,1,0.40004,0,59,59,59,1,2,NEW,NEW,C,,,,,,,,,,,,,,,,,,,,,,,,,,,,,,,,,,,,,,,,,,,,,,,,,,,,,,,,,,,,,,,,,,,,,,,,,,,,,,,,
,,,,,,,,,,,,TestWords/KO_SU_FAI.wav,,5cc7443b836ddc0016fec706,61,2021-03-24_21h46.14.303,CombinedMST_OA,2020.2.10,Linux x86_64,60,,,,,,,,,,,,,,,,,,,,,2,0,0.15015,0,60,60,60,1,1,OLD,OLD,C,,,,,,,,,,,,,,,,,,,,,,,,,,,,,,,,,,,,,,,,,,,,,,,,,,,,,,,,,,,,,,,,,,,,,,,,,,,,,,,,
,,,,,,,,,,,,TestWords/DAI_RU_CHI.wav,,5cc7443b836ddc0016fec706,61,2021-03-24_21h46.14.303,CombinedMST_OA,2020.2.10,Linux x86_64,60,,,,,,,,,,,,,,,,,,,,,2,0,0.38339,0,61,61,61,1,1,OLD,OLD,C,,,,,,,,,,,,,,,,,,,,,,,,,,,,,,,,,,,,,,,,,,,,,,,,,,,,,,,,,,,,,,,,,,,,,,,,,,,,,,,,
,,,,,,,,,,,,TestWords/VU_WAI_NA.wav,,5cc7443b836ddc0016fec706,61,2021-03-24_21h46.14.303,CombinedMST_OA,2020.2.10,Linux x86_64,60,,,,,,,,,,,,,,,,,,,,,2,1,0.5106,0,62,62,62,1,2,NEW,SIMILAR,C,,,,,,,,,,,,,,,,,,,,,,,,,,,,,,,,,,,,,,,,,,,,,,,,,,,,,,,,,,,,,,,,,,,,,,,,,,,,,,,,
,,,,,,,,,,,,TestWords/RAY_PA_TI.wav,,5cc7443b836ddc0016fec706,61,2021-03-24_21h46.14.303,CombinedMST_OA,2020.2.10,Linux x86_64,60,,,,,,,,,,,,,,,,,,,,,1,1,0.165205,0,63,63,63,1,1,OLD,OLD,C,,,,,,,,,,,,,,,,,,,,,,,,,,,,,,,,,,,,,,,,,,,,,,,,,,,,,,,,,,,,,,,,,,,,,,,,,,,,,,,,
,,,,,,,,,,,,TestWords/KAI_LAY_TA.wav,,5cc7443b836ddc0016fec706,61,2021-03-24_21h46.14.303,CombinedMST_OA,2020.2.10,Linux x86_64,60,,,,,,,,,,,,,,,,,,,,,2,0,1.334825,0,64,64,64,1,1,OLD,OLD,C,,,,,,,,,,,,,,,,,,,,,,,,,,,,,,,,,,,,,,,,,,,,,,,,,,,,,,,,,,,,,,,,,,,,,,,,,,,,,,,,
,,,,,,,,,,,,TestWords/GA_MU_ZI.wav,,5cc7443b836ddc0016fec706,61,2021-03-24_21h46.14.303,CombinedMST_OA,2020.2.10,Linux x86_64,60,,,,,,,,,,,,,,,,,,,,,2,0,1.79688,0,65,65,65,1,1,OLD,OLD,C,,,,,,,,,,,,,,,,,,,,,,,,,,,,,,,,,,,,,,,,,,,,,,,,,,,,,,,,,,,,,,,,,,,,,,,,,,,,,,,,
,,,,,,,,,,,,TestWords/BA_LI_KAY.wav,,5cc7443b836ddc0016fec706,61,2021-03-24_21h46.14.303,CombinedMST_OA,2020.2.10,Linux x86_64,60,,,,,,,,,,,,,,,,,,,,,2,1,0.95065,0,66,66,66,1,2,NEW,SIMILAR,C,,,,,,,,,,,,,,,,,,,,,,,,,,,,,,,,,,,,,,,,,,,,,,,,,,,,,,,,,,,,,,,,,,,,,,,,,,,,,,,,
,,,,,,,,,,,,TestWords/NA_VU_WAI.wav,,5cc7443b836ddc0016fec706,61,2021-03-24_21h46.14.303,CombinedMST_OA,2020.2.10,Linux x86_64,60,,,,,,,,,,,,,,,,,,,,,2,1,0.59923,0,67,67,67,1,2,NEW,SIMILAR,C,,,,,,,,,,,,,,,,,,,,,,,,,,,,,,,,,,,,,,,,,,,,,,,,,,,,,,,,,,,,,,,,,,,,,,,,,,,,,,,,
,,,,,,,,,,,,TestWords/KO_SU_FAI.wav,,5cc7443b836ddc0016fec706,61,2021-03-24_21h46.14.303,CombinedMST_OA,2020.2.10,Linux x86_64,60,,,,,,,,,,,,,,,,,,,,,2,0,0.592845,0,68,68,68,1,1,OLD,OLD,C,,,,,,,,,,,,,,,,,,,,,,,,,,,,,,,,,,,,,,,,,,,,,,,,,,,,,,,,,,,,,,,,,,,,,,,,,,,,,,,,
,,,,,,,,,,,,TestWords/RAI_ZO_FU.wav,,5cc7443b836ddc0016fec706,61,2021-03-24_21h46.14.303,CombinedMST_OA,2020.2.10,Linux x86_64,60,,,,,,,,,,,,,,,,,,,,,2,1,0.48907,0,69,69,69,1,2,NEW,NEW,C,,,,,,,,,,,,,,,,,,,,,,,,,,,,,,,,,,,,,,,,,,,,,,,,,,,,,,,,,,,,,,,,,,,,,,,,,,,,,,,,
,,,,,,,,,,,,TestWords/DAI_RU_CHI.wav,,5cc7443b836ddc0016fec706,61,2021-03-24_21h46.14.303,CombinedMST_OA,2020.2.10,Linux x86_64,60,,,,,,,,,,,,,,,,,,,,,1,1,0.852395,0,70,70,70,1,1,OLD,OLD,C,,,,,,,,,,,,,,,,,,,,,,,,,,,,,,,,,,,,,,,,,,,,,,,,,,,,,,,,,,,,,,,,,,,,,,,,,,,,,,,,
,,,,,,,,,,,,TestWords/RAY_PA_TI.wav,,5cc7443b836ddc0016fec706,61,2021-03-24_21h46.14.303,CombinedMST_OA,2020.2.10,Linux x86_64,60,,,,,,,,,,,,,,,,,,,,,1,1,0.501255,0,71,71,71,1,1,OLD,OLD,C,,,,,,,,,,,,,,,,,,,,,,,,,,,,,,,,,,,,,,,,,,,,,,,,,,,,,,,,,,,,,,,,,,,,,,,,,,,,,,,,
,,,,,,,,,,,,TestWords/LI_KAY_BA.wav,,5cc7443b836ddc0016fec706,61,2021-03-24_21h46.14.303,CombinedMST_OA,2020.2.10,Linux x86_64,60,,,,,,,,,,,,,,,,,,,,,2,1,1.05361,0,72,72,72,1,2,NEW,SIMILAR,C,,,,,,,,,,,,,,,,,,,,,,,,,,,,,,,,,,,,,,,,,,,,,,,,,,,,,,,,,,,,,,,,,,,,,,,,,,,,,,,,
,,,,,,,,,,,,TestWords/KAI_LAY_TA.wav,,5cc7443b836ddc0016fec706,61,2021-03-24_21h46.14.303,CombinedMST_OA,2020.2.10,Linux x86_64,60,,,,,,,,,,,,,,,,,,,,,2,0,0.9031,0,73,73,73,1,1,OLD,OLD,C,,,,,,,,,,,,,,,,,,,,,,,,,,,,,,,,,,,,,,,,,,,,,,,,,,,,,,,,,,,,,,,,,,,,,,,,,,,,,,,,
,,,,,,,,,,,,TestWords/GA_MU_ZI.wav,,5cc7443b836ddc0016fec706,61,2021-03-24_21h46.14.303,CombinedMST_OA,2020.2.10,Linux x86_64,60,,,,,,,,,,,,,,,,,,,,,2,0,1.22033,0,74,74,74,1,1,OLD,OLD,C,,,,,,,,,,,,,,,,,,,,,,,,,,,,,,,,,,,,,,,,,,,,,,,,,,,,,,,,,,,,,,,,,,,,,,,,,,,,,,,,
,,,,,,,,,,,,TestWords/NA_WAI_VU.wav,,5cc7443b836ddc0016fec706,61,2021-03-24_21h46.14.303,CombinedMST_OA,2020.2.10,Linux x86_64,60,,,,,,,,,,,,,,,,,,,,,2,1,0.88075,0,75,75,75,1,2,NEW,SIMILAR,C,,,,,,,,,,,,,,,,,,,,,,,,,,,,,,,,,,,,,,,,,,,,,,,,,,,,,,,,,,,,,,,,,,,,,,,,,,,,,,,,
,,,,,,,,,,,,TestWords/KO_SU_FAI.wav,,5cc7443b836ddc0016fec706,61,2021-03-24_21h46.14.303,CombinedMST_OA,2020.2.10,Linux x86_64,60,,,,,,,,,,,,,,,,,,,,,2,0,0.69015,0,76,76,76,1,1,OLD,OLD,C,,,,,,,,,,,,,,,,,,,,,,,,,,,,,,,,,,,,,,,,,,,,,,,,,,,,,,,,,,,,,,,,,,,,,,,,,,,,,,,,
,,,,,,,,,,,,TestWords/ZO_RAI_FU.wav,,5cc7443b836ddc0016fec706,61,2021-03-24_21h46.14.303,CombinedMST_OA,2020.2.10,Linux x86_64,60,,,,,,,,,,,,,,,,,,,,,2,1,0.952425,0,77,77,77,1,2,NEW,SIMILAR,C,,,,,,,,,,,,,,,,,,,,,,,,,,,,,,,,,,,,,,,,,,,,,,,,,,,,,,,,,,,,,,,,,,,,,,,,,,,,,,,,
,,,,,,,,,,,,TestWords/RAY_PA_TI.wav,,5cc7443b836ddc0016fec706,61,2021-03-24_21h46.14.303,CombinedMST_OA,2020.2.10,Linux x86_64,60,,,,,,,,,,,,,,,,,,,,,1,1,1.015285,0,78,78,78,1,1,OLD,OLD,C,,,,,,,,,,,,,,,,,,,,,,,,,,,,,,,,,,,,,,,,,,,,,,,,,,,,,,,,,,,,,,,,,,,,,,,,,,,,,,,,
,,,,,,,,,,,,TestWords/KAI_LAY_TA.wav,,5cc7443b836ddc0016fec706,61,2021-03-24_21h46.14.303,CombinedMST_OA,2020.2.10,Linux x86_64,60,,,,,,,,,,,,,,,,,,,,,1,1,0.51761,0,79,79,79,1,1,OLD,OLD,C,,,,,,,,,,,,,,,,,,,,,,,,,,,,,,,,,,,,,,,,,,,,,,,,,,,,,,,,,,,,,,,,,,,,,,,,,,,,,,,,
,,,,,,,,,,,,TestWords/GA_MU_ZI.wav,,5cc7443b836ddc0016fec706,61,2021-03-24_21h46.14.303,CombinedMST_OA,2020.2.10,Linux x86_64,60,,,,,,,,,,,,,,,,,,,,,2,0,1.021755,0,80,80,80,1,1,OLD,OLD,C,,,,,,,,,,,,,,,,,,,,,,,,,,,,,,,,,,,,,,,,,,,,,,,,,,,,,,,,,,,,,,,,,,,,,,,,,,,,,,,,
,,,,,,,,,,,,TestWords/DA_CHU_VAI.wav,,5cc7443b836ddc0016fec706,61,2021-03-24_21h46.14.303,CombinedMST_OA,2020.2.10,Linux x86_64,60,,,,,,,,,,,,,,,,,,,,,2,1,0.83679,0,81,81,81,1,2,NEW,NEW,C,,,,,,,,,,,,,,,,,,,,,,,,,,,,,,,,,,,,,,,,,,,,,,,,,,,,,,,,,,,,,,,,,,,,,,,,,,,,,,,,
,,,,,,,,,,,,TestWords/DAI_RU_CHI.wav,,5cc7443b836ddc0016fec706,61,2021-03-24_21h46.14.303,CombinedMST_OA,2020.2.10,Linux x86_64,60,,,,,,,,,,,,,,,,,,,,,2,0,1.067705,0,82,82,82,1,1,OLD,OLD,C,,,,,,,,,,,,,,,,,,,,,,,,,,,,,,,,,,,,,,,,,,,,,,,,,,,,,,,,,,,,,,,,,,,,,,,,,,,,,,,,
,,,,,,,,,,,,TestWords/FU_RAI_ZO.wav,,5cc7443b836ddc0016fec706,61,2021-03-24_21h46.14.303,CombinedMST_OA,2020.2.10,Linux x86_64,60,,,,,,,,,,,,,,,,,,,,,2,1,1.484205,0,83,83,83,1,2,NEW,SIMILAR,C,,,,,,,,,,,,,,,,,,,,,,,,,,,,,,,,,,,,,,,,,,,,,,,,,,,,,,,,,,,,,,,,,,,,,,,,,,,,,,,,
,,,,,,,,,,,,TestWords/KO_SU_FAI.wav,,5cc7443b836ddc0016fec706,61,2021-03-24_21h46.14.303,CombinedMST_OA,2020.2.10,Linux x86_64,60,,,,,,,,,,,,,,,,,,,,,2,0,0.634415,0,84,84,84,1,1,OLD,OLD,C,,,,,,,,,,,,,,,,,,,,,,,,,,,,,,,,,,,,,,,,,,,,,,,,,,,,,,,,,,,,,,,,,,,,,,,,,,,,,,,,
,,,,,,,,,,,,TestWords/RAY_PA_TI.wav,,5cc7443b836ddc0016fec706,61,2021-03-24_21h46.14.303,CombinedMST_OA,2020.2.10,Linux x86_64,60,,,,,,,,,,,,,,,,,,,,,1,1,0.500435,0,85,85,85,1,1,OLD,OLD,C,,,,,,,,,,,,,,,,,,,,,,,,,,,,,,,,,,,,,,,,,,,,,,,,,,,,,,,,,,,,,,,,,,,,,,,,,,,,,,,,
,,,,,,,,,,,,TestWords/DAI_RU_CHI.wav,,5cc7443b836ddc0016fec706,61,2021-03-24_21h46.14.303,CombinedMST_OA,2020.2.10,Linux x86_64,60,,,,,,,,,,,,,,,,,,,,,1,1,1.36373,0,86,86,86,1,1,OLD,OLD,C,,,,,,,,,,,,,,,,,,,,,,,,,,,,,,,,,,,,,,,,,,,,,,,,,,,,,,,,,,,,,,,,,,,,,,,,,,,,,,,,
,,,,,,,,,,,,TestWords/PAI_LU_WA.wav,,5cc7443b836ddc0016fec706,61,2021-03-24_21h46.14.303,CombinedMST_OA,2020.2.10,Linux x86_64,60,,,,,,,,,,,,,,,,,,,,,2,1,0.617085,0,87,87,87,1,2,NEW,NEW,C,,,,,,,,,,,,,,,,,,,,,,,,,,,,,,,,,,,,,,,,,,,,,,,,,,,,,,,,,,,,,,,,,,,,,,,,,,,,,,,,
,,,,,,,,,,,,TestWords/GA_MU_ZI.wav,,5cc7443b836ddc0016fec706,61,2021-03-24_21h46.14.303,CombinedMST_OA,2020.2.10,Linux x86_64,60,,,,,,,,,,,,,,,,,,,,,2,0,0.481825,0,88,88,88,1,1,OLD,OLD,C,,,,,,,,,,,,,,,,,,,,,,,,,,,,,,,,,,,,,,,,,,,,,,,,,,,,,,,,,,,,,,,,,,,,,,,,,,,,,,,,
,,,,,,,,,,,,TestWords/FU_ZO_RAI.wav,,5cc7443b836ddc0016fec706,61,2021-03-24_21h46.14.303,CombinedMST_OA,2020.2.10,Linux x86_64,60,,,,,,,,,,,,,,,,,,,,,2,1,0.406235,0,89,89,89,1,2,NEW,SIMILAR,C,,,,,,,,,,,,,,,,,,,,,,,,,,,,,,,,,,,,,,,,,,,,,,,,,,,,,,,,,,,,,,,,,,,,,,,,,,,,,,,,
,,,,,,,,,,,,TestWords/RAY_PA_TI.wav,,5cc7443b836ddc0016fec706,61,2021-03-24_21h46.14.303,CombinedMST_OA,2020.2.10,Linux x86_64,60,,,,,,,,,,,,,,,,,,,,,1,1,0.37019,0,90,90,90,1,1,OLD,OLD,C,,,,,,,,,,,,,,,,,,,,,,,,,,,,,,,,,,,,,,,,,,,,,,,,,,,,,,,,,,,,,,,,,,,,,,,,,,,,,,,,
,,,,,,,,,,,,TestWords/DAI_RU_CHI.wav,,5cc7443b836ddc0016fec706,61,2021-03-24_21h46.14.303,CombinedMST_OA,2020.2.10,Linux x86_64,60,,,,,,,,,,,,,,,,,,,,,2,0,0.97345,0,91,91,91,1,1,OLD,OLD,C,,,,,,,,,,,,,,,,,,,,,,,,,,,,,,,,,,,,,,,,,,,,,,,,,,,,,,,,,,,,,,,,,,,,,,,,,,,,,,,,
,,,,,,,,,,,,TestWords/LA_ZAY_CHAI.wav,,5cc7443b836ddc0016fec706,61,2021-03-24_21h46.14.303,CombinedMST_OA,2020.2.10,Linux x86_64,60,,,,,,,,,,,,,,,,,,,,,2,1,0.730535,0,92,92,92,1,2,NEW,NEW,C,,,,,,,,,,,,,,,,,,,,,,,,,,,,,,,,,,,,,,,,,,,,,,,,,,,,,,,,,,,,,,,,,,,,,,,,,,,,,,,,
,,,,,,,,,,,,TestWords/GA_MU_ZI.wav,,5cc7443b836ddc0016fec706,61,2021-03-24_21h46.14.303,CombinedMST_OA,2020.2.10,Linux x86_64,60,,,,,,,,,,,,,,,,,,,,,2,0,0.630985,0,93,93,93,1,1,OLD,OLD,C,,,,,,,,,,,,,,,,,,,,,,,,,,,,,,,,,,,,,,,,,,,,,,,,,,,,,,,,,,,,,,,,,,,,,,,,,,,,,,,,
,,,,,,,,,,,,TestWords/RAI_FU_ZO.wav,,5cc7443b836ddc0016fec706,61,2021-03-24_21h46.14.303,CombinedMST_OA,2020.2.10,Linux x86_64,60,,,,,,,,,,,,,,,,,,,,,2,1,0.46729,0,94,94,94,1,2,NEW,SIMILAR,C,,,,,,,,,,,,,,,,,,,,,,,,,,,,,,,,,,,,,,,,,,,,,,,,,,,,,,,,,,,,,,,,,,,,,,,,,,,,,,,,
,,,,,,,,,,,,TestWords/GU_CHAI_PI.wav,,5cc7443b836ddc0016fec706,61,2021-03-24_21h46.14.303,CombinedMST_OA,2020.2.10,Linux x86_64,60,,,,,,,,,,,,,,,,,,,,,2,1,0.13387,0,95,95,95,1,2,NEW,NEW,C,,,,,,,,,,,,,,,,,,,,,,,,,,,,,,,,,,,,,,,,,,,,,,,,,,,,,,,,,,,,,,,,,,,,,,,,,,,,,,,,
,,,,,,,,,,,,TestWords/HI_NAY_VA.wav,,5cc7443b836ddc0016fec706,61,2021-03-24_21h46.14.303,CombinedMST_OA,2020.2.10,Linux x86_64,60,,,,,,,,,,,,,,,,,,,,,2,1,0.64837,0,96,96,96,1,2,NEW,NEW,C,,,,,,,,,,,,,,,,,,,,,,,,,,,,,,,,,,,,,,,,,,,,,,,,,,,,,,,,,,,,,,,,,,,,,,,,,,,,,,,,
,,,,,,,,,,,,TestWords/GA_MU_ZI.wav,,5cc7443b836ddc0016fec706,61,2021-03-24_21h46.14.303,CombinedMST_OA,2020.2.10,Linux x86_64,60,,,,,,,,,,,,,,,,,,,,,2,0,0.26694,0,97,97,97,1,1,OLD,OLD,C,,,,,,,,,,,,,,,,,,,,,,,,,,,,,,,,,,,,,,,,,,,,,,,,,,,,,,,,,,,,,,,,,,,,,,,,,,,,,,,,
,,,,,,,,,,,,TestWords/SI_VAI_CHU.wav,,5cc7443b836ddc0016fec706,61,2021-03-24_21h46.14.303,CombinedMST_OA,2020.2.10,Linux x86_64,60,,,,,,,,,,,,,,,,,,,,,2,1,0.591015,0,98,98,98,1,2,NEW,NEW,C,,,,,,,,,,,,,,,,,,,,,,,,,,,,,,,,,,,,,,,,,,,,,,,,,,,,,,,,,,,,,,,,,,,,,,,,,,,,,,,,
,,,,,,,,,,,,TestWords/ZO_FU_RAI.wav,,5cc7443b836ddc0016fec706,61,2021-03-24_21h46.14.303,CombinedMST_OA,2020.2.10,Linux x86_64,60,,,,,,,,,,,,,,,,,,,,,2,1,0.88426,0,99,99,99,1,2,NEW,SIMILAR,C,,,,,,,,,,,,,,,,,,,,,,,,,,,,,,,,,,,,,,,,,,,,,,,,,,,,,,,,,,,,,,,,,,,,,,,,,,,,,,,,
,,,,,,,,,,,,,3,5cc7443b836ddc0016fec706,61,2021-03-24_21h46.14.303,CombinedMST_OA,2020.2.10,Linux x86_64,60,,,,,,,,,,,,,,,,,SyllableCheck/BA.wav,,,,,,,,,,,,,,,,return,8.70723,Green,space,4.69484,3,1,2.89284,0,0,0,4,1,BA,PA,BEE,BA,,,,,,,,,,,,,,,,,,,,,,,,,,,,,,,,,,,,,,,,,,,,,,,,,,,,,,,,,,,,,,,
,,,,,,,,,,,,,2,5cc7443b836ddc0016fec706,61,2021-03-24_21h46.14.303,CombinedMST_OA,2020.2.10,Linux x86_64,60,,,,,,,,,,,,,,,,,SyllableCheck/KAY.wav,,,,,,,,,,,,,,,,,,,,,2,1,2.43165,0,1,1,2,1,KAY,KEE,KAY,HAY,,,,,,,,,,,,,,,,,,,,,,,,,,,,,,,,,,,,,,,,,,,,,,,,,,,,,,,,,,,,,,,
,,,,,,,,,,,,,1,5cc7443b836ddc0016fec706,61,2021-03-24_21h46.14.303,CombinedMST_OA,2020.2.10,Linux x86_64,60,,,,,,,,,,,,,,,,,SyllableCheck/TI.wav,,,,,,,,,,,,,,,,,,,,,1,1,2.049955,0,2,2,0,1,TI,TEE,DEE,SEE,,,,,,,,,,,,,,,,,,,,,,,,,,,,,,,,,,,,,,,,,,,,,,,,,,,,,,,,,,,,,,,
,,,,,,,,,,,,,2,5cc7443b836ddc0016fec706,61,2021-03-24_21h46.14.303,CombinedMST_OA,2020.2.10,Linux x86_64,60,,,,,,,,,,,,,,,,,SyllableCheck/SU.wav,,,,,,,,,,,,,,,,,,,,,2,1,2.699905,0,3,3,1,1,SU,SO,SU,ZU,,,,,,,,,,,,,,,,,,,,,,,,,,,,,,,,,,,,,,,,,,,,,,,,,,,,,,,,,,,,,,,
,,,,,,,,,,,,,3,5cc7443b836ddc0016fec706,61,2021-03-24_21h46.14.303,CombinedMST_OA,2020.2.10,Linux x86_64,60,,,,,,,,,,,,,,,,,SyllableCheck/FU.wav,,,,,,,,,,,,,,,,,,,,,3,1,2.26167,0,4,4,3,1,FU,VU,FO,FU,,,,,,,,,,,,,,,,,,,,,,,,,,,,,,,,,,,,,,,,,,,,,,,,,,,,,,,,,,,,,,,
,,,,,,,,,,,,,,5cc7443b836ddc0016fec706,61,2021-03-24_21h46.14.303,CombinedMST_OA,2020.2.10,Linux x86_64,60,,,,,,,,,,,,,,,,,,,,,,,,,,,,,,,,,,,,,,,,,,,,,,,,,,0,0,0,0,1,,,,,,,,,,,,,,,,,,,,,,,,,,,,,,,,,,,,,,,,,,,,,,,,,,,,,,,,,,
,,,,,,,,,,,,,,5cc7443b836ddc0016fec706,61,2021-03-24_21h46.14.303,CombinedMST_OA,2020.2.10,Linux x86_64,60,,,,,,,,,,,,,,,,,,,,,,,,,,,,,,,,,,,,,,,,,,,,,,,,,,,,,,,0,0,0,0,1,1,0,,,,,,,,,,,,,,,,,,,,,,,,,,,,,,,,,,,,,,,,,,,,,,,,,,,
,,,,,,,,,,,,,,5cc7443b836ddc0016fec706,61,2021-03-24_21h46.14.303,CombinedMST_OA,2020.2.10,Linux x86_64,60,space,8.071605,,,,,space,3.28254,,,,,,,,,,,,,,,,,,,,,,,,,,,,,,,,,,,,,,,,,,,,,,,,,,,,,,space,11.0487,space,2.693755,2,1,2.324815,0,0,0,0,1,Practice/Seagull_A.wav,2,3,NEW,Practice,,,,,,,,,,,,,,,,,,,,,,,,,,,,,,,,,,
,,,,,,,,,,,,,,5cc7443b836ddc0016fec706,61,2021-03-24_21h46.14.303,CombinedMST_OA,2020.2.10,Linux x86_64,60,,,,,,,,,,,,,,,,,,,,,,,,,,,,,,,,,,,,,,,,,,,,,,,,,,,,,,,,,,,,,,,,,,2,1,0.6181,0,1,1,1,1,Practice/Skid_B.wav,2,3,NEW,Practice,,,,,,,,,,,,,,,,,,,,,,,,,,,,,,,,,,
,,,,,,,,,,,,,,5cc7443b836ddc0016fec706,61,2021-03-24_21h46.14.303,CombinedMST_OA,2020.2.10,Linux x86_64,60,,,,,,,,,,,,,,,,,,,,,,,,,,,,,,,,,,,,,,,,,,,,,,,,,,,,,,,,,,,,,,,,,,1,1,0.59434,0,2,2,2,1,Practice/Seagull_A.wav,1,1,OLD,Practice,,,,,,,,,,,,,,,,,,,,,,,,,,,,,,,,,,
,,,,,,,,,,,,,,5cc7443b836ddc0016fec706,61,2021-03-24_21h46.14.303,CombinedMST_OA,2020.2.10,Linux x86_64,60,,,,,,,,,,,,,,,,,,,,,,,,,,,,,,,,,,,,,,,,,,,,,,,,,,,,,,,,,,,,,,,,,,2,1,0.69492,0,3,3,3,1,Practice/Gargle_A.wav,2,3,NEW,Practice,,,,,,,,,,,,,,,,,,,,,,,,,,,,,,,,,,
,,,,,,,,,,,,,,5cc7443b836ddc0016fec706,61,2021-03-24_21h46.14.303,CombinedMST_OA,2020.2.10,Linux x86_64,60,,,,,,,,,,,,,,,,,,,,,,,,,,,,,,,,,,,,,,,,,,,,,,,,,,,,,,,,,,,,,,,,,,2,1,0.54654,0,4,4,4,1,Practice/Gargle_B.wav,2,2,SIMILAR,Practice,,,,,,,,,,,,,,,,,,,,,,,,,,,,,,,,,,
,,,,,,,,,,,,,,5cc7443b836ddc0016fec706,61,2021-03-24_21h46.14.303,CombinedMST_OA,2020.2.10,Linux x86_64,60,,,,,,,,,,,,,,,,,,,,,,,,,,,,,,,,,,,,,,,,,,,,,,,,,,,,,,,,,,,,,,,,,,,,,,,,,,SoundMST/ManWhistle.wav,2,3,NEW,B,space,3.59243,2,1,1.2893,0,0,0,0,1,,,,,,,,,,,,,,,,,,,,,,,,
,,,,,,,,,,,,,,5cc7443b836ddc0016fec706,61,2021-03-24_21h46.14.303,CombinedMST_OA,2020.2.10,Linux x86_64,60,,,,,,,,,,,,,,,,,,,,,,,,,,,,,,,,,,,,,,,,,,,,,,,,,,,,,,,,,,,,,,,,,,,,,,,,,,SoundMST/Siren_E.wav,2,3,NEW,B,,,2,1,0.59669,0,1,1,1,1,,,,,,,,,,,,,,,,,,,,,,,,
,,,,,,,,,,,,,,5cc7443b836ddc0016fec706,61,2021-03-24_21h46.14.303,CombinedMST_OA,2020.2.10,Linux x86_64,60,,,,,,,,,,,,,,,,,,,,,,,,,,,,,,,,,,,,,,,,,,,,,,,,,,,,,,,,,,,,,,,,,,,,,,,,,,SoundMST/Footsteps_C.wav,2,3,NEW,B,,,2,1,0.50387,0,2,2,2,1,,,,,,,,,,,,,,,,,,,,,,,,
,,,,,,,,,,,,,,5cc7443b836ddc0016fec706,61,2021-03-24_21h46.14.303,CombinedMST_OA,2020.2.10,Linux x86_64,60,,,,,,,,,,,,,,,,,,,,,,,,,,,,,,,,,,,,,,,,,,,,,,,,,,,,,,,,,,,,,,,,,,,,,,,,,,SoundMST/Chicken_A.wav,2,3,NEW,B,,,2,1,0.90442,0,3,3,3,1,,,,,,,,,,,,,,,,,,,,,,,,
,,,,,,,,,,,,,,5cc7443b836ddc0016fec706,61,2021-03-24_21h46.14.303,CombinedMST_OA,2020.2.10,Linux x86_64,60,,,,,,,,,,,,,,,,,,,,,,,,,,,,,,,,,,,,,,,,,,,,,,,,,,,,,,,,,,,,,,,,,,,,,,,,,,SoundMST/Phone_D.wav,2,3,NEW,B,,,2,1,0.53347,0,4,4,4,1,,,,,,,,,,,,,,,,,,,,,,,,
,,,,,,,,,,,,,,5cc7443b836ddc0016fec706,61,2021-03-24_21h46.14.303,CombinedMST_OA,2020.2.10,Linux x86_64,60,,,,,,,,,,,,,,,,,,,,,,,,,,,,,,,,,,,,,,,,,,,,,,,,,,,,,,,,,,,,,,,,,,,,,,,,,,SoundMST/Cup.wav,2,3,NEW,B,,,2,1,0.47315,0,5,5,5,1,,,,,,,,,,,,,,,,,,,,,,,,
,,,,,,,,,,,,,,5cc7443b836ddc0016fec706,61,2021-03-24_21h46.14.303,CombinedMST_OA,2020.2.10,Linux x86_64,60,,,,,,,,,,,,,,,,,,,,,,,,,,,,,,,,,,,,,,,,,,,,,,,,,,,,,,,,,,,,,,,,,,,,,,,,,,SoundMST/Bowlingpins.wav,2,3,NEW,B,,,2,1,0.53261,0,6,6,6,1,,,,,,,,,,,,,,,,,,,,,,,,
,,,,,,,,,,,,,,5cc7443b836ddc0016fec706,61,2021-03-24_21h46.14.303,CombinedMST_OA,2020.2.10,Linux x86_64,60,,,,,,,,,,,,,,,,,,,,,,,,,,,,,,,,,,,,,,,,,,,,,,,,,,,,,,,,,,,,,,,,,,,,,,,,,,SoundMST/Bird_C.wav,2,3,NEW,B,,,2,1,0.50544,0,7,7,7,1,,,,,,,,,,,,,,,,,,,,,,,,
,,,,,,,,,,,,,,5cc7443b836ddc0016fec706,61,2021-03-24_21h46.14.303,CombinedMST_OA,2020.2.10,Linux x86_64,60,,,,,,,,,,,,,,,,,,,,,,,,,,,,,,,,,,,,,,,,,,,,,,,,,,,,,,,,,,,,,,,,,,,,,,,,,,SoundMST/HairDryer_A.wav,2,3,NEW,B,,,2,1,0.63318,0,8,8,8,1,,,,,,,,,,,,,,,,,,,,,,,,
,,,,,,,,,,,,,,5cc7443b836ddc0016fec706,61,2021-03-24_21h46.14.303,CombinedMST_OA,2020.2.10,Linux x86_64,60,,,,,,,,,,,,,,,,,,,,,,,,,,,,,,,,,,,,,,,,,,,,,,,,,,,,,,,,,,,,,,,,,,,,,,,,,,SoundMST/Faucet_A.wav,2,3,NEW,B,,,2,1,0.639365,0,9,9,9,1,,,,,,,,,,,,,,,,,,,,,,,,
,,,,,,,,,,,,,,5cc7443b836ddc0016fec706,61,2021-03-24_21h46.14.303,CombinedMST_OA,2020.2.10,Linux x86_64,60,,,,,,,,,,,,,,,,,,,,,,,,,,,,,,,,,,,,,,,,,,,,,,,,,,,,,,,,,,,,,,,,,,,,,,,,,,SoundMST/Siren_A.wav,2,2,SIMILAR,B,,,2,1,0.51403,0,10,10,10,1,,,,,,,,,,,,,,,,,,,,,,,,
,,,,,,,,,,,,,,5cc7443b836ddc0016fec706,61,2021-03-24_21h46.14.303,CombinedMST_OA,2020.2.10,Linux x86_64,60,,,,,,,,,,,,,,,,,,,,,,,,,,,,,,,,,,,,,,,,,,,,,,,,,,,,,,,,,,,,,,,,,,,,,,,,,,SoundMST/Laugh_A.wav,2,3,NEW,B,,,2,1,0.50373,0,11,11,11,1,,,,,,,,,,,,,,,,,,,,,,,,
,,,,,,,,,,,,,,5cc7443b836ddc0016fec706,61,2021-03-24_21h46.14.303,CombinedMST_OA,2020.2.10,Linux x86_64,60,,,,,,,,,,,,,,,,,,,,,,,,,,,,,,,,,,,,,,,,,,,,,,,,,,,,,,,,,,,,,,,,,,,,,,,,,,SoundMST/ManWhistle.wav,1,1,OLD,B,,,2,0,0.64528,0,12,12,12,1,,,,,,,,,,,,,,,,,,,,,,,,
,,,,,,,,,,,,,,5cc7443b836ddc0016fec706,61,2021-03-24_21h46.14.303,CombinedMST_OA,2020.2.10,Linux x86_64,60,,,,,,,,,,,,,,,,,,,,,,,,,,,,,,,,,,,,,,,,,,,,,,,,,,,,,,,,,,,,,,,,,,,,,,,,,,SoundMST/Cow.wav,2,3,NEW,B,,,2,1,0.450545,0,13,13,13,1,,,,,,,,,,,,,,,,,,,,,,,,
,,,,,,,,,,,,,,5cc7443b836ddc0016fec706,61,2021-03-24_21h46.14.303,CombinedMST_OA,2020.2.10,Linux x86_64,60,,,,,,,,,,,,,,,,,,,,,,,,,,,,,,,,,,,,,,,,,,,,,,,,,,,,,,,,,,,,,,,,,,,,,,,,,,SoundMST/Cough_C.wav,2,3,NEW,B,,,2,1,0.525575,0,14,14,14,1,,,,,,,,,,,,,,,,,,,,,,,,
,,,,,,,,,,,,,,5cc7443b836ddc0016fec706,61,2021-03-24_21h46.14.303,CombinedMST_OA,2020.2.10,Linux x86_64,60,,,,,,,,,,,,,,,,,,,,,,,,,,,,,,,,,,,,,,,,,,,,,,,,,,,,,,,,,,,,,,,,,,,,,,,,,,SoundMST/Phone_E.wav,2,2,SIMILAR,B,,,2,1,0.463475,0,15,15,15,1,,,,,,,,,,,,,,,,,,,,,,,,
,,,,,,,,,,,,,,5cc7443b836ddc0016fec706,61,2021-03-24_21h46.14.303,CombinedMST_OA,2020.2.10,Linux x86_64,60,,,,,,,,,,,,,,,,,,,,,,,,,,,,,,,,,,,,,,,,,,,,,,,,,,,,,,,,,,,,,,,,,,,,,,,,,,SoundMST/Chime_B.wav,2,3,NEW,B,,,2,1,0.737415,0,16,16,16,1,,,,,,,,,,,,,,,,,,,,,,,,
,,,,,,,,,,,,,,5cc7443b836ddc0016fec706,61,2021-03-24_21h46.14.303,CombinedMST_OA,2020.2.10,Linux x86_64,60,,,,,,,,,,,,,,,,,,,,,,,,,,,,,,,,,,,,,,,,,,,,,,,,,,,,,,,,,,,,,,,,,,,,,,,,,,SoundMST/Footsteps_F.wav,2,2,SIMILAR,B,,,2,1,0.79345,0,17,17,17,1,,,,,,,,,,,,,,,,,,,,,,,,
,,,,,,,,,,,,,,5cc7443b836ddc0016fec706,61,2021-03-24_21h46.14.303,CombinedMST_OA,2020.2.10,Linux x86_64,60,,,,,,,,,,,,,,,,,,,,,,,,,,,,,,,,,,,,,,,,,,,,,,,,,,,,,,,,,,,,,,,,,,,,,,,,,,SoundMST/Toilet_B.wav,2,3,NEW,B,,,2,1,0.555695,0,18,18,18,1,,,,,,,,,,,,,,,,,,,,,,,,
,,,,,,,,,,,,,,5cc7443b836ddc0016fec706,61,2021-03-24_21h46.14.303,CombinedMST_OA,2020.2.10,Linux x86_64,60,,,,,,,,,,,,,,,,,,,,,,,,,,,,,,,,,,,,,,,,,,,,,,,,,,,,,,,,,,,,,,,,,,,,,,,,,,SoundMST/Piano_D.wav,2,3,NEW,B,,,2,1,0.60486,0,19,19,19,1,,,,,,,,,,,,,,,,,,,,,,,,
,,,,,,,,,,,,,,5cc7443b836ddc0016fec706,61,2021-03-24_21h46.14.303,CombinedMST_OA,2020.2.10,Linux x86_64,60,,,,,,,,,,,,,,,,,,,,,,,,,,,,,,,,,,,,,,,,,,,,,,,,,,,,,,,,,,,,,,,,,,,,,,,,,,SoundMST/Cup.wav,1,1,OLD,B,,,2,0,0.55136,0,20,20,20,1,,,,,,,,,,,,,,,,,,,,,,,,
,,,,,,,,,,,,,,5cc7443b836ddc0016fec706,61,2021-03-24_21h46.14.303,CombinedMST_OA,2020.2.10,Linux x86_64,60,,,,,,,,,,,,,,,,,,,,,,,,,,,,,,,,,,,,,,,,,,,,,,,,,,,,,,,,,,,,,,,,,,,,,,,,,,SoundMST/HairDryer_A.wav,1,1,OLD,B,,,1,1,0.43834,0,21,21,21,1,,,,,,,,,,,,,,,,,,,,,,,,
,,,,,,,,,,,,,,5cc7443b836ddc0016fec706,61,2021-03-24_21h46.14.303,CombinedMST_OA,2020.2.10,Linux x86_64,60,,,,,,,,,,,,,,,,,,,,,,,,,,,,,,,,,,,,,,,,,,,,,,,,,,,,,,,,,,,,,,,,,,,,,,,,,,SoundMST/Thunder_A.wav,2,3,NEW,B,,,2,1,0.55076,0,22,22,22,1,,,,,,,,,,,,,,,,,,,,,,,,
,,,,,,,,,,,,,,5cc7443b836ddc0016fec706,61,2021-03-24_21h46.14.303,CombinedMST_OA,2020.2.10,Linux x86_64,60,,,,,,,,,,,,,,,,,,,,,,,,,,,,,,,,,,,,,,,,,,,,,,,,,,,,,,,,,,,,,,,,,,,,,,,,,,SoundMST/Chicken_A.wav,1,1,OLD,B,,,2,0,1.485045,0,23,23,23,1,,,,,,,,,,,,,,,,,,,,,,,,
,,,,,,,,,,,,,,5cc7443b836ddc0016fec706,61,2021-03-24_21h46.14.303,CombinedMST_OA,2020.2.10,Linux x86_64,60,,,,,,,,,,,,,,,,,,,,,,,,,,,,,,,,,,,,,,,,,,,,,,,,,,,,,,,,,,,,,,,,,,,,,,,,,,SoundMST/Whistle_B.wav,2,3,NEW,B,,,2,1,0.451785,0,24,24,24,1,,,,,,,,,,,,,,,,,,,,,,,,
,,,,,,,,,,,,,,5cc7443b836ddc0016fec706,61,2021-03-24_21h46.14.303,CombinedMST_OA,2020.2.10,Linux x86_64,60,,,,,,,,,,,,,,,,,,,,,,,,,,,,,,,,,,,,,,,,,,,,,,,,,,,,,,,,,,,,,,,,,,,,,,,,,,SoundMST/Bird_A.wav,2,2,SIMILAR,B,,,2,1,0.688205,0,25,25,25,1,,,,,,,,,,,,,,,,,,,,,,,,
,,,,,,,,,,,,,,5cc7443b836ddc0016fec706,61,2021-03-24_21h46.14.303,CombinedMST_OA,2020.2.10,Linux x86_64,60,,,,,,,,,,,,,,,,,,,,,,,,,,,,,,,,,,,,,,,,,,,,,,,,,,,,,,,,,,,,,,,,,,,,,,,,,,SoundMST/Dog_H.wav,2,3,NEW,B,,,2,1,0.58974,0,26,26,26,1,,,,,,,,,,,,,,,,,,,,,,,,
,,,,,,,,,,,,,,5cc7443b836ddc0016fec706,61,2021-03-24_21h46.14.303,CombinedMST_OA,2020.2.10,Linux x86_64,60,,,,,,,,,,,,,,,,,,,,,,,,,,,,,,,,,,,,,,,,,,,,,,,,,,,,,,,,,,,,,,,,,,,,,,,,,,SoundMST/Bowlingpins.wav,1,1,OLD,B,,,2,0,0.782385,0,27,27,27,1,,,,,,,,,,,,,,,,,,,,,,,,
,,,,,,,,,,,,,,5cc7443b836ddc0016fec706,61,2021-03-24_21h46.14.303,CombinedMST_OA,2020.2.10,Linux x86_64,60,,,,,,,,,,,,,,,,,,,,,,,,,,,,,,,,,,,,,,,,,,,,,,,,,,,,,,,,,,,,,,,,,,,,,,,,,,SoundMST/Fireworks.wav,2,3,NEW,B,,,2,1,0.439135,0,28,28,28,1,,,,,,,,,,,,,,,,,,,,,,,,
,,,,,,,,,,,,,,5cc7443b836ddc0016fec706,61,2021-03-24_21h46.14.303,CombinedMST_OA,2020.2.10,Linux x86_64,60,,,,,,,,,,,,,,,,,,,,,,,,,,,,,,,,,,,,,,,,,,,,,,,,,,,,,,,,,,,,,,,,,,,,,,,,,,SoundMST/Cow.wav,1,1,OLD,B,,,2,0,0.534335,0,29,29,29,1,,,,,,,,,,,,,,,,,,,,,,,,
,,,,,,,,,,,,,,5cc7443b836ddc0016fec706,61,2021-03-24_21h46.14.303,CombinedMST_OA,2020.2.10,Linux x86_64,60,,,,,,,,,,,,,,,,,,,,,,,,,,,,,,,,,,,,,,,,,,,,,,,,,,,,,,,,,,,,,,,,,,,,,,,,,,SoundMST/Snore_C.wav,2,3,NEW,B,,,2,1,0.471715,0,30,30,30,1,,,,,,,,,,,,,,,,,,,,,,,,
,,,,,,,,,,,,,,5cc7443b836ddc0016fec706,61,2021-03-24_21h46.14.303,CombinedMST_OA,2020.2.10,Linux x86_64,60,,,,,,,,,,,,,,,,,,,,,,,,,,,,,,,,,,,,,,,,,,,,,,,,,,,,,,,,,,,,,,,,,,,,,,,,,,SoundMST/Faucet_C.wav,2,2,SIMILAR,B,,,2,1,0.460625,0,31,31,31,1,,,,,,,,,,,,,,,,,,,,,,,,
,,,,,,,,,,,,,,5cc7443b836ddc0016fec706,61,2021-03-24_21h46.14.303,CombinedMST_OA,2020.2.10,Linux x86_64,60,,,,,,,,,,,,,,,,,,,,,,,,,,,,,,,,,,,,,,,,,,,,,,,,,,,,,,,,,,,,,,,,,,,,,,,,,,SoundMST/Chime_A.wav,2,2,SIMILAR,B,,,1,0,0.442355,0,32,32,32,1,,,,,,,,,,,,,,,,,,,,,,,,
,,,,,,,,,,,,,,5cc7443b836ddc0016fec706,61,2021-03-24_21h46.14.303,CombinedMST_OA,2020.2.10,Linux x86_64,60,,,,,,,,,,,,,,,,,,,,,,,,,,,,,,,,,,,,,,,,,,,,,,,,,,,,,,,,,,,,,,,,,,,,,,,,,,SoundMST/Cough_E.wav,2,2,SIMILAR,B,,,2,1,0.39987,0,33,33,33,1,,,,,,,,,,,,,,,,,,,,,,,,
,,,,,,,,,,,,,,5cc7443b836ddc0016fec706,61,2021-03-24_21h46.14.303,CombinedMST_OA,2020.2.10,Linux x86_64,60,,,,,,,,,,,,,,,,,,,,,,,,,,,,,,,,,,,,,,,,,,,,,,,,,,,,,,,,,,,,,,,,,,,,,,,,,,SoundMST/Heartbeat.wav,2,3,NEW,B,,,2,1,0.51742,0,34,34,34,1,,,,,,,,,,,,,,,,,,,,,,,,
,,,,,,,,,,,,,,5cc7443b836ddc0016fec706,61,2021-03-24_21h46.14.303,CombinedMST_OA,2020.2.10,Linux x86_64,60,,,,,,,,,,,,,,,,,,,,,,,,,,,,,,,,,,,,,,,,,,,,,,,,,,,,,,,,,,,,,,,,,,,,,,,,,,SoundMST/Laugh_D.wav,2,2,SIMILAR,B,,,2,1,0.389835,0,35,35,35,1,,,,,,,,,,,,,,,,,,,,,,,,
,,,,,,,,,,,,,,5cc7443b836ddc0016fec706,61,2021-03-24_21h46.14.303,CombinedMST_OA,2020.2.10,Linux x86_64,60,,,,,,,,,,,,,,,,,,,,,,,,,,,,,,,,,,,,,,,,,,,,,,,,,,,,,,,,,,,,,,,,,,,,,,,,,,SoundMST/Cello.wav,2,3,NEW,B,,,2,1,0.74932,0,36,36,36,1,,,,,,,,,,,,,,,,,,,,,,,,
,,,,,,,,,,,,,,5cc7443b836ddc0016fec706,61,2021-03-24_21h46.14.303,CombinedMST_OA,2020.2.10,Linux x86_64,60,,,,,,,,,,,,,,,,,,,,,,,,,,,,,,,,,,,,,,,,,,,,,,,,,,,,,,,,,,,,,,,,,,,,,,,,,,SoundMST/Piano_D.wav,1,1,OLD,B,,,1,1,0.41857,0,37,37,37,1,,,,,,,,,,,,,,,,,,,,,,,,
,,,,,,,,,,,,,,5cc7443b836ddc0016fec706,61,2021-03-24_21h46.14.303,CombinedMST_OA,2020.2.10,Linux x86_64,60,,,,,,,,,,,,,,,,,,,,,,,,,,,,,,,,,,,,,,,,,,,,,,,,,,,,,,,,,,,,,,,,,,,,,,,,,,SoundMST/Clap_B.wav,2,3,NEW,B,,,2,1,0.501205,0,38,38,38,1,,,,,,,,,,,,,,,,,,,,,,,,
,,,,,,,,,,,,,,5cc7443b836ddc0016fec706,61,2021-03-24_21h46.14.303,CombinedMST_OA,2020.2.10,Linux x86_64,60,,,,,,,,,,,,,,,,,,,,,,,,,,,,,,,,,,,,,,,,,,,,,,,,,,,,,,,,,,,,,,,,,,,,,,,,,,SoundMST/Bagpipe.wav,2,3,NEW,B,,,2,1,0.533815,0,39,39,39,1,,,,,,,,,,,,,,,,,,,,,,,,
,,,,,,,,,,,,,,5cc7443b836ddc0016fec706,61,2021-03-24_21h46.14.303,CombinedMST_OA,2020.2.10,Linux x86_64,60,,,,,,,,,,,,,,,,,,,,,,,,,,,,,,,,,,,,,,,,,,,,,,,,,,,,,,,,,,,,,,,,,,,,,,,,,,SoundMST/Growl_G.wav,2,3,NEW,B,,,2,1,0.467565,0,40,40,40,1,,,,,,,,,,,,,,,,,,,,,,,,
,,,,,,,,,,,,,,5cc7443b836ddc0016fec706,61,2021-03-24_21h46.14.303,CombinedMST_OA,2020.2.10,Linux x86_64,60,,,,,,,,,,,,,,,,,,,,,,,,,,,,,,,,,,,,,,,,,,,,,,,,,,,,,,,,,,,,,,,,,,,,,,,,,,SoundMST/Airplane_B.wav,2,3,NEW,B,,,2,1,0.399785,0,41,41,41,1,,,,,,,,,,,,,,,,,,,,,,,,
,,,,,,,,,,,,,,5cc7443b836ddc0016fec706,61,2021-03-24_21h46.14.303,CombinedMST_OA,2020.2.10,Linux x86_64,60,,,,,,,,,,,,,,,,,,,,,,,,,,,,,,,,,,,,,,,,,,,,,,,,,,,,,,,,,,,,,,,,,,,,,,,,,,SoundMST/Toilet_B.wav,1,1,OLD,B,,,2,0,0.450765,0,42,42,42,1,,,,,,,,,,,,,,,,,,,,,,,,
,,,,,,,,,,,,,,5cc7443b836ddc0016fec706,61,2021-03-24_21h46.14.303,CombinedMST_OA,2020.2.10,Linux x86_64,60,,,,,,,,,,,,,,,,,,,,,,,,,,,,,,,,,,,,,,,,,,,,,,,,,,,,,,,,,,,,,,,,,,,,,,,,,,SoundMST/Hammer_A.wav,2,3,NEW,B,,,2,1,0.43349,0,43,43,43,1,,,,,,,,,,,,,,,,,,,,,,,,
,,,,,,,,,,,,,,5cc7443b836ddc0016fec706,61,2021-03-24_21h46.14.303,CombinedMST_OA,2020.2.10,Linux x86_64,60,,,,,,,,,,,,,,,,,,,,,,,,,,,,,,,,,,,,,,,,,,,,,,,,,,,,,,,,,,,,,,,,,,,,,,,,,,SoundMST/Goat_B.wav,2,3,NEW,B,,,2,1,0.46648,0,44,44,44,1,,,,,,,,,,,,,,,,,,,,,,,,
,,,,,,,,,,,,,,5cc7443b836ddc0016fec706,61,2021-03-24_21h46.14.303,CombinedMST_OA,2020.2.10,Linux x86_64,60,,,,,,,,,,,,,,,,,,,,,,,,,,,,,,,,,,,,,,,,,,,,,,,,,,,,,,,,,,,,,,,,,,,,,,,,,,SoundMST/Coin_D.wav,2,3,NEW,B,,,2,1,0.3683,0,45,45,45,1,,,,,,,,,,,,,,,,,,,,,,,,
,,,,,,,,,,,,,,5cc7443b836ddc0016fec706,61,2021-03-24_21h46.14.303,CombinedMST_OA,2020.2.10,Linux x86_64,60,,,,,,,,,,,,,,,,,,,,,,,,,,,,,,,,,,,,,,,,,,,,,,,,,,,,,,,,,,,,,,,,,,,,,,,,,,SoundMST/Fireworks.wav,1,1,OLD,B,,,1,1,0.46735,0,46,46,46,1,,,,,,,,,,,,,,,,,,,,,,,,
,,,,,,,,,,,,,,5cc7443b836ddc0016fec706,61,2021-03-24_21h46.14.303,CombinedMST_OA,2020.2.10,Linux x86_64,60,,,,,,,,,,,,,,,,,,,,,,,,,,,,,,,,,,,,,,,,,,,,,,,,,,,,,,,,,,,,,,,,,,,,,,,,,,SoundMST/Donkey.wav,2,3,NEW,B,,,2,1,0.46803,0,47,47,47,1,,,,,,,,,,,,,,,,,,,,,,,,
,,,,,,,,,,,,,,5cc7443b836ddc0016fec706,61,2021-03-24_21h46.14.303,CombinedMST_OA,2020.2.10,Linux x86_64,60,,,,,,,,,,,,,,,,,,,,,,,,,,,,,,,,,,,,,,,,,,,,,,,,,,,,,,,,,,,,,,,,,,,,,,,,,,SoundMST/Howl.wav,2,3,NEW,B,,,2,1,0.51713,0,48,48,48,1,,,,,,,,,,,,,,,,,,,,,,,,
,,,,,,,,,,,,,,5cc7443b836ddc0016fec706,61,2021-03-24_21h46.14.303,CombinedMST_OA,2020.2.10,Linux x86_64,60,,,,,,,,,,,,,,,,,,,,,,,,,,,,,,,,,,,,,,,,,,,,,,,,,,,,,,,,,,,,,,,,,,,,,,,,,,SoundMST/Thunder_A.wav,1,1,OLD,B,,,2,0,0.550785,0,49,49,49,1,,,,,,,,,,,,,,,,,,,,,,,,
,,,,,,,,,,,,,,5cc7443b836ddc0016fec706,61,2021-03-24_21h46.14.303,CombinedMST_OA,2020.2.10,Linux x86_64,60,,,,,,,,,,,,,,,,,,,,,,,,,,,,,,,,,,,,,,,,,,,,,,,,,,,,,,,,,,,,,,,,,,,,,,,,,,SoundMST/Whistle_C.wav,2,2,SIMILAR,B,,,2,1,0.621565,0,50,50,50,1,,,,,,,,,,,,,,,,,,,,,,,,
,,,,,,,,,,,,,,5cc7443b836ddc0016fec706,61,2021-03-24_21h46.14.303,CombinedMST_OA,2020.2.10,Linux x86_64,60,,,,,,,,,,,,,,,,,,,,,,,,,,,,,,,,,,,,,,,,,,,,,,,,,,,,,,,,,,,,,,,,,,,,,,,,,,SoundMST/Helicopter_A.wav,2,3,NEW,B,,,2,1,0.500595,0,51,51,51,1,,,,,,,,,,,,,,,,,,,,,,,,
,,,,,,,,,,,,,,5cc7443b836ddc0016fec706,61,2021-03-24_21h46.14.303,CombinedMST_OA,2020.2.10,Linux x86_64,60,,,,,,,,,,,,,,,,,,,,,,,,,,,,,,,,,,,,,,,,,,,,,,,,,,,,,,,,,,,,,,,,,,,,,,,,,,SoundMST/Dog_F.wav,2,2,SIMILAR,B,,,2,1,0.467285,0,52,52,52,1,,,,,,,,,,,,,,,,,,,,,,,,
,,,,,,,,,,,,,,5cc7443b836ddc0016fec706,61,2021-03-24_21h46.14.303,CombinedMST_OA,2020.2.10,Linux x86_64,60,,,,,,,,,,,,,,,,,,,,,,,,,,,,,,,,,,,,,,,,,,,,,,,,,,,,,,,,,,,,,,,,,,,,,,,,,,SoundMST/Horse.wav,2,3,NEW,B,,,2,1,0.400705,0,53,53,53,1,,,,,,,,,,,,,,,,,,,,,,,,
,,,,,,,,,,,,,,5cc7443b836ddc0016fec706,61,2021-03-24_21h46.14.303,CombinedMST_OA,2020.2.10,Linux x86_64,60,,,,,,,,,,,,,,,,,,,,,,,,,,,,,,,,,,,,,,,,,,,,,,,,,,,,,,,,,,,,,,,,,,,,,,,,,,SoundMST/Chomp_A.wav,2,3,NEW,B,,,2,1,0.43423,0,54,54,54,1,,,,,,,,,,,,,,,,,,,,,,,,
,,,,,,,,,,,,,,5cc7443b836ddc0016fec706,61,2021-03-24_21h46.14.303,CombinedMST_OA,2020.2.10,Linux x86_64,60,,,,,,,,,,,,,,,,,,,,,,,,,,,,,,,,,,,,,,,,,,,,,,,,,,,,,,,,,,,,,,,,,,,,,,,,,,SoundMST/Heartbeat.wav,1,1,OLD,B,,,1,1,0.567625,0,55,55,55,1,,,,,,,,,,,,,,,,,,,,,,,,
,,,,,,,,,,,,,,5cc7443b836ddc0016fec706,61,2021-03-24_21h46.14.303,CombinedMST_OA,2020.2.10,Linux x86_64,60,,,,,,,,,,,,,,,,,,,,,,,,,,,,,,,,,,,,,,,,,,,,,,,,,,,,,,,,,,,,,,,,,,,,,,,,,,SoundMST/Clap_C.wav,2,2,SIMILAR,B,,,1,0,0.70316,0,56,56,56,1,,,,,,,,,,,,,,,,,,,,,,,,
,,,,,,,,,,,,,,5cc7443b836ddc0016fec706,61,2021-03-24_21h46.14.303,CombinedMST_OA,2020.2.10,Linux x86_64,60,,,,,,,,,,,,,,,,,,,,,,,,,,,,,,,,,,,,,,,,,,,,,,,,,,,,,,,,,,,,,,,,,,,,,,,,,,SoundMST/Crow_B.wav,2,3,NEW,B,,,2,1,0.501405,0,57,57,57,1,,,,,,,,,,,,,,,,,,,,,,,,
,,,,,,,,,,,,,,5cc7443b836ddc0016fec706,61,2021-03-24_21h46.14.303,CombinedMST_OA,2020.2.10,Linux x86_64,60,,,,,,,,,,,,,,,,,,,,,,,,,,,,,,,,,,,,,,,,,,,,,,,,,,,,,,,,,,,,,,,,,,,,,,,,,,SoundMST/Growl_H.wav,2,2,SIMILAR,B,,,2,1,0.46806,0,58,58,58,1,,,,,,,,,,,,,,,,,,,,,,,,
,,,,,,,,,,,,,,5cc7443b836ddc0016fec706,61,2021-03-24_21h46.14.303,CombinedMST_OA,2020.2.10,Linux x86_64,60,,,,,,,,,,,,,,,,,,,,,,,,,,,,,,,,,,,,,,,,,,,,,,,,,,,,,,,,,,,,,,,,,,,,,,,,,,SoundMST/Printer.wav,2,3,NEW,B,,,2,1,0.4305,0,59,59,59,1,,,,,,,,,,,,,,,,,,,,,,,,
,,,,,,,,,,,,,,5cc7443b836ddc0016fec706,61,2021-03-24_21h46.14.303,CombinedMST_OA,2020.2.10,Linux x86_64,60,,,,,,,,,,,,,,,,,,,,,,,,,,,,,,,,,,,,,,,,,,,,,,,,,,,,,,,,,,,,,,,,,,,,,,,,,,SoundMST/Cello.wav,1,1,OLD,B,,,1,1,1.452925,0,60,60,60,1,,,,,,,,,,,,,,,,,,,,,,,,
,,,,,,,,,,,,,,5cc7443b836ddc0016fec706,61,2021-03-24_21h46.14.303,CombinedMST_OA,2020.2.10,Linux x86_64,60,,,,,,,,,,,,,,,,,,,,,,,,,,,,,,,,,,,,,,,,,,,,,,,,,,,,,,,,,,,,,,,,,,,,,,,,,,SoundMST/Snore_E.wav,2,2,SIMILAR,B,,,2,1,0.353015,0,61,61,61,1,,,,,,,,,,,,,,,,,,,,,,,,
,,,,,,,,,,,,,,5cc7443b836ddc0016fec706,61,2021-03-24_21h46.14.303,CombinedMST_OA,2020.2.10,Linux x86_64,60,,,,,,,,,,,,,,,,,,,,,,,,,,,,,,,,,,,,,,,,,,,,,,,,,,,,,,,,,,,,,,,,,,,,,,,,,,SoundMST/CarStart_E.wav,2,3,NEW,B,,,2,1,0.58405,0,62,62,62,1,,,,,,,,,,,,,,,,,,,,,,,,
,,,,,,,,,,,,,,5cc7443b836ddc0016fec706,61,2021-03-24_21h46.14.303,CombinedMST_OA,2020.2.10,Linux x86_64,60,,,,,,,,,,,,,,,,,,,,,,,,,,,,,,,,,,,,,,,,,,,,,,,,,,,,,,,,,,,,,,,,,,,,,,,,,,SoundMST/Goat_C.wav,2,2,SIMILAR,B,,,2,1,0.70054,0,63,63,63,1,,,,,,,,,,,,,,,,,,,,,,,,
,,,,,,,,,,,,,,5cc7443b836ddc0016fec706,61,2021-03-24_21h46.14.303,CombinedMST_OA,2020.2.10,Linux x86_64,60,,,,,,,,,,,,,,,,,,,,,,,,,,,,,,,,,,,,,,,,,,,,,,,,,,,,,,,,,,,,,,,,,,,,,,,,,,SoundMST/Coin_E.wav,2,2,SIMILAR,B,,,2,1,0.83302,0,64,64,64,1,,,,,,,,,,,,,,,,,,,,,,,,
,,,,,,,,,,,,,,5cc7443b836ddc0016fec706,61,2021-03-24_21h46.14.303,CombinedMST_OA,2020.2.10,Linux x86_64,60,,,,,,,,,,,,,,,,,,,,,,,,,,,,,,,,,,,,,,,,,,,,,,,,,,,,,,,,,,,,,,,,,,,,,,,,,,SoundMST/Howl.wav,1,1,OLD,B,,,1,1,0.414005,0,65,65,65,1,,,,,,,,,,,,,,,,,,,,,,,,
,,,,,,,,,,,,,,5cc7443b836ddc0016fec706,61,2021-03-24_21h46.14.303,CombinedMST_OA,2020.2.10,Linux x86_64,60,,,,,,,,,,,,,,,,,,,,,,,,,,,,,,,,,,,,,,,,,,,,,,,,,,,,,,,,,,,,,,,,,,,,,,,,,,SoundMST/Airplane_B.wav,1,1,OLD,B,,,2,0,0.407015,0,66,66,66,1,,,,,,,,,,,,,,,,,,,,,,,,
,,,,,,,,,,,,,,5cc7443b836ddc0016fec706,61,2021-03-24_21h46.14.303,CombinedMST_OA,2020.2.10,Linux x86_64,60,,,,,,,,,,,,,,,,,,,,,,,,,,,,,,,,,,,,,,,,,,,,,,,,,,,,,,,,,,,,,,,,,,,,,,,,,,SoundMST/Mosquito_B.wav,1,1,OLD,B,,,2,0,0.51709,0,67,67,67,1,,,,,,,,,,,,,,,,,,,,,,,,
,,,,,,,,,,,,,,5cc7443b836ddc0016fec706,61,2021-03-24_21h46.14.303,CombinedMST_OA,2020.2.10,Linux x86_64,60,,,,,,,,,,,,,,,,,,,,,,,,,,,,,,,,,,,,,,,,,,,,,,,,,,,,,,,,,,,,,,,,,,,,,,,,,,SoundMST/Droplet_B.wav,2,3,NEW,B,,,2,1,0.633675,0,68,68,68,1,,,,,,,,,,,,,,,,,,,,,,,,
,,,,,,,,,,,,,,5cc7443b836ddc0016fec706,61,2021-03-24_21h46.14.303,CombinedMST_OA,2020.2.10,Linux x86_64,60,,,,,,,,,,,,,,,,,,,,,,,,,,,,,,,,,,,,,,,,,,,,,,,,,,,,,,,,,,,,,,,,,,,,,,,,,,SoundMST/Donkey.wav,1,1,OLD,B,,,1,1,0.542485,0,69,69,69,1,,,,,,,,,,,,,,,,,,,,,,,,
,,,,,,,,,,,,,,5cc7443b836ddc0016fec706,61,2021-03-24_21h46.14.303,CombinedMST_OA,2020.2.10,Linux x86_64,60,,,,,,,,,,,,,,,,,,,,,,,,,,,,,,,,,,,,,,,,,,,,,,,,,,,,,,,,,,,,,,,,,,,,,,,,,,SoundMST/Guitar_B.wav,2,3,NEW,B,,,2,1,0.430305,0,70,70,70,1,,,,,,,,,,,,,,,,,,,,,,,,
,,,,,,,,,,,,,,5cc7443b836ddc0016fec706,61,2021-03-24_21h46.14.303,CombinedMST_OA,2020.2.10,Linux x86_64,60,,,,,,,,,,,,,,,,,,,,,,,,,,,,,,,,,,,,,,,,,,,,,,,,,,,,,,,,,,,,,,,,,,,,,,,,,,SoundMST/Bagpipe.wav,1,1,OLD,B,,,1,1,0.58619,0,71,71,71,1,,,,,,,,,,,,,,,,,,,,,,,,
,,,,,,,,,,,,,,5cc7443b836ddc0016fec706,61,2021-03-24_21h46.14.303,CombinedMST_OA,2020.2.10,Linux x86_64,60,,,,,,,,,,,,,,,,,,,,,,,,,,,,,,,,,,,,,,,,,,,,,,,,,,,,,,,,,,,,,,,,,,,,,,,,,,SoundMST/Hammer_A.wav,2,3,NEW,B,,,1,0,0.525165,0,72,72,72,1,,,,,,,,,,,,,,,,,,,,,,,,
,,,,,,,,,,,,,,5cc7443b836ddc0016fec706,61,2021-03-24_21h46.14.303,CombinedMST_OA,2020.2.10,Linux x86_64,60,,,,,,,,,,,,,,,,,,,,,,,,,,,,,,,,,,,,,,,,,,,,,,,,,,,,,,,,,,,,,,,,,,,,,,,,,,SoundMST/Helicopter_A.wav,1,1,OLD,B,,,1,1,0.46808,0,73,73,73,1,,,,,,,,,,,,,,,,,,,,,,,,
,,,,,,,,,,,,,,5cc7443b836ddc0016fec706,61,2021-03-24_21h46.14.303,CombinedMST_OA,2020.2.10,Linux x86_64,60,,,,,,,,,,,,,,,,,,,,,,,,,,,,,,,,,,,,,,,,,,,,,,,,,,,,,,,,,,,,,,,,,,,,,,,,,,SoundMST/Camera.wav,2,3,NEW,B,,,2,1,0.664225,0,74,74,74,1,,,,,,,,,,,,,,,,,,,,,,,,
,,,,,,,,,,,,,,5cc7443b836ddc0016fec706,61,2021-03-24_21h46.14.303,CombinedMST_OA,2020.2.10,Linux x86_64,60,,,,,,,,,,,,,,,,,,,,,,,,,,,,,,,,,,,,,,,,,,,,,,,,,,,,,,,,,,,,,,,,,,,,,,,,,,SoundMST/Steam.wav,2,3,NEW,B,,,2,1,0.397955,0,75,75,75,1,,,,,,,,,,,,,,,,,,,,,,,,
,,,,,,,,,,,,,,5cc7443b836ddc0016fec706,61,2021-03-24_21h46.14.303,CombinedMST_OA,2020.2.10,Linux x86_64,60,,,,,,,,,,,,,,,,,,,,,,,,,,,,,,,,,,,,,,,,,,,,,,,,,,,,,,,,,,,,,,,,,,,,,,,,,,SoundMST/Horse.wav,1,1,OLD,B,,,2,0,0.51069,0,76,76,76,1,,,,,,,,,,,,,,,,,,,,,,,,
,,,,,,,,,,,,,,5cc7443b836ddc0016fec706,61,2021-03-24_21h46.14.303,CombinedMST_OA,2020.2.10,Linux x86_64,60,,,,,,,,,,,,,,,,,,,,,,,,,,,,,,,,,,,,,,,,,,,,,,,,,,,,,,,,,,,,,,,,,,,,,,,,,,SoundMST/Elephant_C.wav,2,3,NEW,B,,,2,1,0.4802,0,77,77,77,1,,,,,,,,,,,,,,,,,,,,,,,,
,,,,,,,,,,,,,,5cc7443b836ddc0016fec706,61,2021-03-24_21h46.14.303,CombinedMST_OA,2020.2.10,Linux x86_64,60,,,,,,,,,,,,,,,,,,,,,,,,,,,,,,,,,,,,,,,,,,,,,,,,,,,,,,,,,,,,,,,,,,,,,,,,,,SoundMST/Printer.wav,1,1,OLD,B,,,1,1,0.517805,0,78,78,78,1,,,,,,,,,,,,,,,,,,,,,,,,
,,,,,,,,,,,,,,5cc7443b836ddc0016fec706,61,2021-03-24_21h46.14.303,CombinedMST_OA,2020.2.10,Linux x86_64,60,,,,,,,,,,,,,,,,,,,,,,,,,,,,,,,,,,,,,,,,,,,,,,,,,,,,,,,,,,,,,,,,,,,,,,,,,,SoundMST/Crow_A.wav,2,2,SIMILAR,B,,,2,1,0.66509,0,79,79,79,1,,,,,,,,,,,,,,,,,,,,,,,,
,,,,,,,,,,,,,,5cc7443b836ddc0016fec706,61,2021-03-24_21h46.14.303,CombinedMST_OA,2020.2.10,Linux x86_64,60,,,,,,,,,,,,,,,,,,,,,,,,,,,,,,,,,,,,,,,,,,,,,,,,,,,,,,,,,,,,,,,,,,,,,,,,,,SoundMST/Bubbles_A.wav,2,3,NEW,B,,,2,1,0.43933,0,80,80,80,1,,,,,,,,,,,,,,,,,,,,,,,,
,,,,,,,,,,,,,,5cc7443b836ddc0016fec706,61,2021-03-24_21h46.14.303,CombinedMST_OA,2020.2.10,Linux x86_64,60,,,,,,,,,,,,,,,,,,,,,,,,,,,,,,,,,,,,,,,,,,,,,,,,,,,,,,,,,,,,,,,,,,,,,,,,,,SoundMST/Chomp_C.wav,2,2,SIMILAR,B,,,2,1,0.41428,0,81,81,81,1,,,,,,,,,,,,,,,,,,,,,,,,
,,,,,,,,,,,,,,5cc7443b836ddc0016fec706,61,2021-03-24_21h46.14.303,CombinedMST_OA,2020.2.10,Linux x86_64,60,,,,,,,,,,,,,,,,,,,,,,,,,,,,,,,,,,,,,,,,,,,,,,,,,,,,,,,,,,,,,,,,,,,,,,,,,,SoundMST/Airhorn.wav,2,3,NEW,B,,,2,1,0.347325,0,82,82,82,1,,,,,,,,,,,,,,,,,,,,,,,,
,,,,,,,,,,,,,,5cc7443b836ddc0016fec706,61,2021-03-24_21h46.14.303,CombinedMST_OA,2020.2.10,Linux x86_64,60,,,,,,,,,,,,,,,,,,,,,,,,,,,,,,,,,,,,,,,,,,,,,,,,,,,,,,,,,,,,,,,,,,,,,,,,,,SoundMST/Writing_A.wav,2,3,NEW,B,,,2,1,0.42572,0,83,83,83,1,,,,,,,,,,,,,,,,,,,,,,,,
,,,,,,,,,,,,,,5cc7443b836ddc0016fec706,61,2021-03-24_21h46.14.303,CombinedMST_OA,2020.2.10,Linux x86_64,60,,,,,,,,,,,,,,,,,,,,,,,,,,,,,,,,,,,,,,,,,,,,,,,,,,,,,,,,,,,,,,,,,,,,,,,,,,SoundMST/Cuckoo_A.wav,2,3,NEW,B,,,2,1,0.41747,0,84,84,84,1,,,,,,,,,,,,,,,,,,,,,,,,
,,,,,,,,,,,,,,5cc7443b836ddc0016fec706,61,2021-03-24_21h46.14.303,CombinedMST_OA,2020.2.10,Linux x86_64,60,,,,,,,,,,,,,,,,,,,,,,,,,,,,,,,,,,,,,,,,,,,,,,,,,,,,,,,,,,,,,,,,,,,,,,,,,,SoundMST/IceDrop.wav,2,3,NEW,B,,,2,1,0.50068,0,85,85,85,1,,,,,,,,,,,,,,,,,,,,,,,,
,,,,,,,,,,,,,,5cc7443b836ddc0016fec706,61,2021-03-24_21h46.14.303,CombinedMST_OA,2020.2.10,Linux x86_64,60,,,,,,,,,,,,,,,,,,,,,,,,,,,,,,,,,,,,,,,,,,,,,,,,,,,,,,,,,,,,,,,,,,,,,,,,,,SoundMST/CarStart_D.wav,2,2,SIMILAR,B,,,2,1,0.419385,0,86,86,86,1,,,,,,,,,,,,,,,,,,,,,,,,
,,,,,,,,,,,,,,5cc7443b836ddc0016fec706,61,2021-03-24_21h46.14.303,CombinedMST_OA,2020.2.10,Linux x86_64,60,,,,,,,,,,,,,,,,,,,,,,,,,,,,,,,,,,,,,,,,,,,,,,,,,,,,,,,,,,,,,,,,,,,,,,,,,,SoundMST/Baby_F.wav,2,3,NEW,B,,,2,1,0.41742,0,87,87,87,1,,,,,,,,,,,,,,,,,,,,,,,,
,,,,,,,,,,,,,,5cc7443b836ddc0016fec706,61,2021-03-24_21h46.14.303,CombinedMST_OA,2020.2.10,Linux x86_64,60,,,,,,,,,,,,,,,,,,,,,,,,,,,,,,,,,,,,,,,,,,,,,,,,,,,,,,,,,,,,,,,,,,,,,,,,,,SoundMST/Puff_A.wav,2,3,NEW,B,,,2,1,0.653935,0,88,88,88,1,,,,,,,,,,,,,,,,,,,,,,,,
,,,,,,,,,,,,,,5cc7443b836ddc0016fec706,61,2021-03-24_21h46.14.303,CombinedMST_OA,2020.2.10,Linux x86_64,60,,,,,,,,,,,,,,,,,,,,,,,,,,,,,,,,,,,,,,,,,,,,,,,,,,,,,,,,,,,,,,,,,,,,,,,,,,SoundMST/Droplet_B.wav,1,1,OLD,B,,,2,0,0.54086,0,89,89,89,1,,,,,,,,,,,,,,,,,,,,,,,,
,,,,,,,,,,,,,,5cc7443b836ddc0016fec706,61,2021-03-24_21h46.14.303,CombinedMST_OA,2020.2.10,Linux x86_64,60,,,,,,,,,,,,,,,,,,,,,,,,,,,,,,,,,,,,,,,,,,,,,,,,,,,,,,,,,,,,,,,,,,,,,,,,,,SoundMST/Guitar_B.wav,1,1,OLD,B,,,1,1,0.417845,0,90,90,90,1,,,,,,,,,,,,,,,,,,,,,,,,
,,,,,,,,,,,,,,5cc7443b836ddc0016fec706,61,2021-03-24_21h46.14.303,CombinedMST_OA,2020.2.10,Linux x86_64,60,,,,,,,,,,,,,,,,,,,,,,,,,,,,,,,,,,,,,,,,,,,,,,,,,,,,,,,,,,,,,,,,,,,,,,,,,,SoundMST/PaperRip.wav,2,3,NEW,B,,,2,1,0.8698,0,91,91,91,1,,,,,,,,,,,,,,,,,,,,,,,,
,,,,,,,,,,,,,,5cc7443b836ddc0016fec706,61,2021-03-24_21h46.14.303,CombinedMST_OA,2020.2.10,Linux x86_64,60,,,,,,,,,,,,,,,,,,,,,,,,,,,,,,,,,,,,,,,,,,,,,,,,,,,,,,,,,,,,,,,,,,,,,,,,,,SoundMST/Mosquito_B.wav,1,1,OLD,B,,,1,1,0.461965,0,92,92,92,1,,,,,,,,,,,,,,,,,,,,,,,,
,,,,,,,,,,,,,,5cc7443b836ddc0016fec706,61,2021-03-24_21h46.14.303,CombinedMST_OA,2020.2.10,Linux x86_64,60,,,,,,,,,,,,,,,,,,,,,,,,,,,,,,,,,,,,,,,,,,,,,,,,,,,,,,,,,,,,,,,,,,,,,,,,,,SoundMST/Trumpet_B.wav,2,3,NEW,B,,,2,1,0.379505,0,93,93,93,1,,,,,,,,,,,,,,,,,,,,,,,,
,,,,,,,,,,,,,,5cc7443b836ddc0016fec706,61,2021-03-24_21h46.14.303,CombinedMST_OA,2020.2.10,Linux x86_64,60,,,,,,,,,,,,,,,,,,,,,,,,,,,,,,,,,,,,,,,,,,,,,,,,,,,,,,,,,,,,,,,,,,,,,,,,,,SoundMST/Bullfrog.wav,2,3,NEW,B,,,2,1,0.45985,0,94,94,94,1,,,,,,,,,,,,,,,,,,,,,,,,
,,,,,,,,,,,,,,5cc7443b836ddc0016fec706,61,2021-03-24_21h46.14.303,CombinedMST_OA,2020.2.10,Linux x86_64,60,,,,,,,,,,,,,,,,,,,,,,,,,,,,,,,,,,,,,,,,,,,,,,,,,,,,,,,,,,,,,,,,,,,,,,,,,,SoundMST/Elephant_A.wav,2,2,SIMILAR,B,,,2,1,0.451495,0,95,95,95,1,,,,,,,,,,,,,,,,,,,,,,,,
,,,,,,,,,,,,,,5cc7443b836ddc0016fec706,61,2021-03-24_21h46.14.303,CombinedMST_OA,2020.2.10,Linux x86_64,60,,,,,,,,,,,,,,,,,,,,,,,,,,,,,,,,,,,,,,,,,,,,,,,,,,,,,,,,,,,,,,,,,,,,,,,,,,SoundMST/Sneeze_B.wav,2,3,NEW,B,,,2,1,0.55673,0,96,96,96,1,,,,,,,,,,,,,,,,,,,,,,,,
,,,,,,,,,,,,,,5cc7443b836ddc0016fec706,61,2021-03-24_21h46.14.303,CombinedMST_OA,2020.2.10,Linux x86_64,60,,,,,,,,,,,,,,,,,,,,,,,,,,,,,,,,,,,,,,,,,,,,,,,,,,,,,,,,,,,,,,,,,,,,,,,,,,SoundMST/Camera.wav,1,1,OLD,B,,,1,1,0.58372,0,97,97,97,1,,,,,,,,,,,,,,,,,,,,,,,,
,,,,,,,,,,,,,,5cc7443b836ddc0016fec706,61,2021-03-24_21h46.14.303,CombinedMST_OA,2020.2.10,Linux x86_64,60,,,,,,,,,,,,,,,,,,,,,,,,,,,,,,,,,,,,,,,,,,,,,,,,,,,,,,,,,,,,,,,,,,,,,,,,,,SoundMST/Cat_A.wav,2,3,NEW,B,,,2,1,0.4341,0,98,98,98,1,,,,,,,,,,,,,,,,,,,,,,,,
,,,,,,,,,,,,,,5cc7443b836ddc0016fec706,61,2021-03-24_21h46.14.303,CombinedMST_OA,2020.2.10,Linux x86_64,60,,,,,,,,,,,,,,,,,,,,,,,,,,,,,,,,,,,,,,,,,,,,,,,,,,,,,,,,,,,,,,,,,,,,,,,,,,SoundMST/Steam.wav,1,1,OLD,B,,,2,0,0.50777,0,99,99,99,1,,,,,,,,,,,,,,,,,,,,,,,,
,,,,,,,,,,,,,,5cc7443b836ddc0016fec706,61,2021-03-24_21h46.14.303,CombinedMST_OA,2020.2.10,Linux x86_64,60,,,,,,,,,,,,,,,,,,,,,,,,,,,,,,,,,,,,,,,,,,,,,,,,,,,,,,,,,,,,,,,,,,,,,,,,,,SoundMST/Writing_C.wav,2,2,SIMILAR,B,,,2,1,0.422905,0,100,100,100,1,,,,,,,,,,,,,,,,,,,,,,,,
,,,,,,,,,,,,,,5cc7443b836ddc0016fec706,61,2021-03-24_21h46.14.303,CombinedMST_OA,2020.2.10,Linux x86_64,60,,,,,,,,,,,,,,,,,,,,,,,,,,,,,,,,,,,,,,,,,,,,,,,,,,,,,,,,,,,,,,,,,,,,,,,,,,SoundMST/IceDrop.wav,1,1,OLD,B,,,1,1,0.450225,0,101,101,101,1,,,,,,,,,,,,,,,,,,,,,,,,
,,,,,,,,,,,,,,5cc7443b836ddc0016fec706,61,2021-03-24_21h46.14.303,CombinedMST_OA,2020.2.10,Linux x86_64,60,,,,,,,,,,,,,,,,,,,,,,,,,,,,,,,,,,,,,,,,,,,,,,,,,,,,,,,,,,,,,,,,,,,,,,,,,,SoundMST/Slurp.wav,2,3,NEW,B,,,2,1,0.467555,0,102,102,102,1,,,,,,,,,,,,,,,,,,,,,,,,
,,,,,,,,,,,,,,5cc7443b836ddc0016fec706,61,2021-03-24_21h46.14.303,CombinedMST_OA,2020.2.10,Linux x86_64,60,,,,,,,,,,,,,,,,,,,,,,,,,,,,,,,,,,,,,,,,,,,,,,,,,,,,,,,,,,,,,,,,,,,,,,,,,,SoundMST/Baby_E.wav,2,2,SIMILAR,B,,,1,0,0.44043,0,103,103,103,1,,,,,,,,,,,,,,,,,,,,,,,,
,,,,,,,,,,,,,,5cc7443b836ddc0016fec706,61,2021-03-24_21h46.14.303,CombinedMST_OA,2020.2.10,Linux x86_64,60,,,,,,,,,,,,,,,,,,,,,,,,,,,,,,,,,,,,,,,,,,,,,,,,,,,,,,,,,,,,,,,,,,,,,,,,,,SoundMST/DialTone.wav,2,3,NEW,B,,,2,1,0.43371,0,104,104,104,1,,,,,,,,,,,,,,,,,,,,,,,,
,,,,,,,,,,,,,,5cc7443b836ddc0016fec706,61,2021-03-24_21h46.14.303,CombinedMST_OA,2020.2.10,Linux x86_64,60,,,,,,,,,,,,,,,,,,,,,,,,,,,,,,,,,,,,,,,,,,,,,,,,,,,,,,,,,,,,,,,,,,,,,,,,,,SoundMST/Puff_A.wav,1,1,OLD,B,,,1,1,0.50024,0,105,105,105,1,,,,,,,,,,,,,,,,,,,,,,,,
,,,,,,,,,,,,,,5cc7443b836ddc0016fec706,61,2021-03-24_21h46.14.303,CombinedMST_OA,2020.2.10,Linux x86_64,60,,,,,,,,,,,,,,,,,,,,,,,,,,,,,,,,,,,,,,,,,,,,,,,,,,,,,,,,,,,,,,,,,,,,,,,,,,SoundMST/Buzz.wav,2,3,NEW,B,,,2,1,0.433745,0,106,106,106,1,,,,,,,,,,,,,,,,,,,,,,,,
,,,,,,,,,,,,,,5cc7443b836ddc0016fec706,61,2021-03-24_21h46.14.303,CombinedMST_OA,2020.2.10,Linux x86_64,60,,,,,,,,,,,,,,,,,,,,,,,,,,,,,,,,,,,,,,,,,,,,,,,,,,,,,,,,,,,,,,,,,,,,,,,,,,SoundMST/Airhorn.wav,1,1,OLD,B,,,2,0,0.38402,0,107,107,107,1,,,,,,,,,,,,,,,,,,,,,,,,
,,,,,,,,,,,,,,5cc7443b836ddc0016fec706,61,2021-03-24_21h46.14.303,CombinedMST_OA,2020.2.10,Linux x86_64,60,,,,,,,,,,,,,,,,,,,,,,,,,,,,,,,,,,,,,,,,,,,,,,,,,,,,,,,,,,,,,,,,,,,,,,,,,,SoundMST/Sleighbells_B.wav,2,3,NEW,B,,,2,1,0.90076,0,108,108,108,1,,,,,,,,,,,,,,,,,,,,,,,,
,,,,,,,,,,,,,,5cc7443b836ddc0016fec706,61,2021-03-24_21h46.14.303,CombinedMST_OA,2020.2.10,Linux x86_64,60,,,,,,,,,,,,,,,,,,,,,,,,,,,,,,,,,,,,,,,,,,,,,,,,,,,,,,,,,,,,,,,,,,,,,,,,,,SoundMST/Cuckoo_A.wav,1,1,OLD,B,,,1,1,0.53456,0,109,109,109,1,,,,,,,,,,,,,,,,,,,,,,,,
,,,,,,,,,,,,,,5cc7443b836ddc0016fec706,61,2021-03-24_21h46.14.303,CombinedMST_OA,2020.2.10,Linux x86_64,60,,,,,,,,,,,,,,,,,,,,,,,,,,,,,,,,,,,,,,,,,,,,,,,,,,,,,,,,,,,,,,,,,,,,,,,,,,SoundMST/Wind_B.wav,2,3,NEW,B,,,2,1,0.65167,0,110,110,110,1,,,,,,,,,,,,,,,,,,,,,,,,
,,,,,,,,,,,,,,5cc7443b836ddc0016fec706,61,2021-03-24_21h46.14.303,CombinedMST_OA,2020.2.10,Linux x86_64,60,,,,,,,,,,,,,,,,,,,,,,,,,,,,,,,,,,,,,,,,,,,,,,,,,,,,,,,,,,,,,,,,,,,,,,,,,,SoundMST/Typing.wav,2,3,NEW,B,,,2,1,0.873365,0,111,111,111,1,,,,,,,,,,,,,,,,,,,,,,,,
,,,,,,,,,,,,,,5cc7443b836ddc0016fec706,61,2021-03-24_21h46.14.303,CombinedMST_OA,2020.2.10,Linux x86_64,60,,,,,,,,,,,,,,,,,,,,,,,,,,,,,,,,,,,,,,,,,,,,,,,,,,,,,,,,,,,,,,,,,,,,,,,,,,SoundMST/Bubbles_B.wav,2,2,SIMILAR,B,,,1,0,0.451315,0,112,112,112,1,,,,,,,,,,,,,,,,,,,,,,,,
,,,,,,,,,,,,,,5cc7443b836ddc0016fec706,61,2021-03-24_21h46.14.303,CombinedMST_OA,2020.2.10,Linux x86_64,60,,,,,,,,,,,,,,,,,,,,,,,,,,,,,,,,,,,,,,,,,,,,,,,,,,,,,,,,,,,,,,,,,,,,,,,,,,SoundMST/Duck_A.wav,2,3,NEW,B,,,2,1,0.400945,0,113,113,113,1,,,,,,,,,,,,,,,,,,,,,,,,
,,,,,,,,,,,,,,5cc7443b836ddc0016fec706,61,2021-03-24_21h46.14.303,CombinedMST_OA,2020.2.10,Linux x86_64,60,,,,,,,,,,,,,,,,,,,,,,,,,,,,,,,,,,,,,,,,,,,,,,,,,,,,,,,,,,,,,,,,,,,,,,,,,,SoundMST/Trumpet_B.wav,1,1,OLD,B,,,1,1,0.438325,0,114,114,114,1,,,,,,,,,,,,,,,,,,,,,,,,
,,,,,,,,,,,,,,5cc7443b836ddc0016fec706,61,2021-03-24_21h46.14.303,CombinedMST_OA,2020.2.10,Linux x86_64,60,,,,,,,,,,,,,,,,,,,,,,,,,,,,,,,,,,,,,,,,,,,,,,,,,,,,,,,,,,,,,,,,,,,,,,,,,,SoundMST/PaperRip.wav,1,1,OLD,B,,,2,0,0.568155,0,115,115,115,1,,,,,,,,,,,,,,,,,,,,,,,,
,,,,,,,,,,,,,,5cc7443b836ddc0016fec706,61,2021-03-24_21h46.14.303,CombinedMST_OA,2020.2.10,Linux x86_64,60,,,,,,,,,,,,,,,,,,,,,,,,,,,,,,,,,,,,,,,,,,,,,,,,,,,,,,,,,,,,,,,,,,,,,,,,,,SoundMST/Sneeze_B.wav,1,1,OLD,B,,,1,1,0.45664,0,116,116,116,1,,,,,,,,,,,,,,,,,,,,,,,,
,,,,,,,,,,,,,,5cc7443b836ddc0016fec706,61,2021-03-24_21h46.14.303,CombinedMST_OA,2020.2.10,Linux x86_64,60,,,,,,,,,,,,,,,,,,,,,,,,,,,,,,,,,,,,,,,,,,,,,,,,,,,,,,,,,,,,,,,,,,,,,,,,,,SoundMST/Pour_B.wav,2,3,NEW,B,,,2,1,0.66464,0,117,117,117,1,,,,,,,,,,,,,,,,,,,,,,,,
,,,,,,,,,,,,,,5cc7443b836ddc0016fec706,61,2021-03-24_21h46.14.303,CombinedMST_OA,2020.2.10,Linux x86_64,60,,,,,,,,,,,,,,,,,,,,,,,,,,,,,,,,,,,,,,,,,,,,,,,,,,,,,,,,,,,,,,,,,,,,,,,,,,SoundMST/Cat_A.wav,1,1,OLD,B,,,1,1,0.45091,0,118,118,118,1,,,,,,,,,,,,,,,,,,,,,,,,
,,,,,,,,,,,,,,5cc7443b836ddc0016fec706,61,2021-03-24_21h46.14.303,CombinedMST_OA,2020.2.10,Linux x86_64,60,,,,,,,,,,,,,,,,,,,,,,,,,,,,,,,,,,,,,,,,,,,,,,,,,,,,,,,,,,,,,,,,,,,,,,,,,,SoundMST/Slurp.wav,1,1,OLD,B,,,1,1,0.42086,0,119,119,119,1,,,,,,,,,,,,,,,,,,,,,,,,
,,,,,,,,,,,,,,5cc7443b836ddc0016fec706,61,2021-03-24_21h46.14.303,CombinedMST_OA,2020.2.10,Linux x86_64,60,,,,,,,,,,,,,,,,,,,,,,,,,,,,,,,,,,,,,,,,,,,,,,,,,,,,,,,,,,,,,,,,,,,,,,,,,,SoundMST/Bullfrog.wav,1,1,OLD,B,,,1,1,0.485305,0,120,120,120,1,,,,,,,,,,,,,,,,,,,,,,,,
,,,,,,,,,,,,,,5cc7443b836ddc0016fec706,61,2021-03-24_21h46.14.303,CombinedMST_OA,2020.2.10,Linux x86_64,60,,,,,,,,,,,,,,,,,,,,,,,,,,,,,,,,,,,,,,,,,,,,,,,,,,,,,,,,,,,,,,,,,,,,,,,,,,SoundMST/Wind_B.wav,1,1,OLD,B,,,2,0,1.16811,0,121,121,121,1,,,,,,,,,,,,,,,,,,,,,,,,
,,,,,,,,,,,,,,5cc7443b836ddc0016fec706,61,2021-03-24_21h46.14.303,CombinedMST_OA,2020.2.10,Linux x86_64,60,,,,,,,,,,,,,,,,,,,,,,,,,,,,,,,,,,,,,,,,,,,,,,,,,,,,,,,,,,,,,,,,,,,,,,,,,,SoundMST/Duck_B.wav,2,2,SIMILAR,B,,,2,1,0.43535,0,122,122,122,1,,,,,,,,,,,,,,,,,,,,,,,,
,,,,,,,,,,,,,,5cc7443b836ddc0016fec706,61,2021-03-24_21h46.14.303,CombinedMST_OA,2020.2.10,Linux x86_64,60,,,,,,,,,,,,,,,,,,,,,,,,,,,,,,,,,,,,,,,,,,,,,,,,,,,,,,,,,,,,,,,,,,,,,,,,,,SoundMST/DialTone.wav,1,1,OLD,B,,,1,1,0.15071,0,123,123,123,1,,,,,,,,,,,,,,,,,,,,,,,,
,,,,,,,,,,,,,,5cc7443b836ddc0016fec706,61,2021-03-24_21h46.14.303,CombinedMST_OA,2020.2.10,Linux x86_64,60,,,,,,,,,,,,,,,,,,,,,,,,,,,,,,,,,,,,,,,,,,,,,,,,,,,,,,,,,,,,,,,,,,,,,,,,,,SoundMST/Buzz.wav,1,1,OLD,B,,,1,1,0.501565,0,124,124,124,1,,,,,,,,,,,,,,,,,,,,,,,,
,,,,,,,,,,,,,,5cc7443b836ddc0016fec706,61,2021-03-24_21h46.14.303,CombinedMST_OA,2020.2.10,Linux x86_64,60,,,,,,,,,,,,,,,,,,,,,,,,,,,,,,,,,,,,,,,,,,,,,,,,,,,,,,,,,,,,,,,,,,,,,,,,,,SoundMST/Pour_C.wav,2,2,SIMILAR,B,,,1,0,0.683705,0,125,125,125,1,,,,,,,,,,,,,,,,,,,,,,,,
,,,,,,,,,,,,,,5cc7443b836ddc0016fec706,61,2021-03-24_21h46.14.303,CombinedMST_OA,2020.2.10,Linux x86_64,60,,,,,,,,,,,,,,,,,,,,,,,,,,,,,,,,,,,,,,,,,,,,,,,,,,,,,,,,,,,,,,,,,,,,,,,,,,SoundMST/Typing.wav,1,1,OLD,B,,,2,0,0.384255,0,126,126,126,1,,,,,,,,,,,,,,,,,,,,,,,,
,,,,,,,,,,,,,,5cc7443b836ddc0016fec706,61,2021-03-24_21h46.14.303,CombinedMST_OA,2020.2.10,Linux x86_64,60,,,,,,,,,,,,,,,,,,,,,,,,,,,,,,,,,,,,,,,,,,,,,,,,,,,,,,,,,,,,,,,,,,,,,,,,,,SoundMST/Sleighbells_B.wav,1,1,OLD,B,,,2,0,1.16776,0,127,127,127,1,,,,,,,,,,,,,,,,,,,,,,,,
,,,,,,,,,,,,,,5cc7443b836ddc0016fec706,61,2021-03-24_21h46.14.303,CombinedMST_OA,2020.2.10,Linux x86_64,60,,,,,,,,,,,,,,,,,,,,,,,,,,,,,,,,,,,,,,,,,,,,,,,,,,,,,,,,,,,,,,,,,,,,,,,,,,,,,,,,,,,,,,,,,return,8.53215,Bread,0,0,0,0,1,,,,,,,,,,,,,,,,
,,,,,,,,,,,,,,5cc7443b836ddc0016fec706,61,2021-03-24_21h46.14.303,CombinedMST_OA,2020.2.10,Linux x86_64,60,,,,,,,,,,,,,,,,,,,,,,,,,,,,,,,,,,,,,,,,,,,,,,,,,,,,,,,0,1,1,1,1,0,1,,,,,,,,,,,,,,,,,,,,,,,,,,,,,,,,,,,,,,,,,,,,,,,,,,,
,,,,,,,,,,,,,,5cc7443b836ddc0016fec706,61,2021-03-24_21h46.14.303,CombinedMST_OA,2020.2.10,Linux x86_64,60,,,,,,,,,,,,,,,,,,,,,,,,,,,,,,,,,,,,,,,,,,,,,,,,,,,,,,,,,,,,,,,,,,,,,,,,,,,,,,,,,,,,,,,,,,,,,,,,,space,2.221375,space,11.428615,return,18.75892,someone moving something,0,0,0,40,1,SoundMST/Footsteps_C.wav,SIMILAR,,
,,,,,,,,,,,,,,5cc7443b836ddc0016fec706,61,2021-03-24_21h46.14.303,CombinedMST_OA,2020.2.10,Linux x86_64,60,,,,,,,,,,,,,,,,,,,,,,,,,,,,,,,,,,,,,,,,,,,,,,,,,,,,,,,,,,,,,,,,,,,,,,,,,,,,,,,,,,,,,,,,,,,,,,,,,,,,,return,10.77952, wolf howl,0,1,1,80,1,SoundMST/Howl.wav,SAME,,
,,,,,,,,,,,,,,5cc7443b836ddc0016fec706,61,2021-03-24_21h46.14.303,CombinedMST_OA,2020.2.10,Linux x86_64,60,,,,,,,,,,,,,,,,,,,,,,,,,,,,,,,,,,,,,,,,,,,,,,,,,,,,,,,,,,,,,,,,,,,,,,,,,,,,,,,,,,,,,,,,,,,,,,,,,,,,,return,18.54539, someone using a whistle,0,2,2,35,1,SoundMST/Whistle_B.wav,SIMILAR,,
,,,,,,,,,,,,,,5cc7443b836ddc0016fec706,61,2021-03-24_21h46.14.303,CombinedMST_OA,2020.2.10,Linux x86_64,60,,,,,,,,,,,,,,,,,,,,,,,,,,,,,,,,,,,,,,,,,,,,,,,,,,,,,,,,,,,,,,,,,,,,,,,,,,,,,,,,,,,,,,,,,,,,,,,,,,,,,return,14.207035, typing in a computer keyboard,0,3,3,49,1,SoundMST/Typing.wav,SAME,,
,,,,,,,,,,,,,,5cc7443b836ddc0016fec706,61,2021-03-24_21h46.14.303,CombinedMST_OA,2020.2.10,Linux x86_64,60,,,,,,,,,,,,,,,,,,,,,,,,,,,,,,,,,,,,,,,,,,,,,,,,,,,,,,,,,,,,,,,,,,,,,,,,,,,,,,,,,,,,,,,,,,,,,,,,,,,,,return,11.50059, hands clapping applause,0,4,4,47,1,SoundMST/Clap_B.wav,SIMILAR,,
,,,,,,,,,,,,,,5cc7443b836ddc0016fec706,61,2021-03-24_21h46.14.303,CombinedMST_OA,2020.2.10,Linux x86_64,60,,,,,,,,,,,,,,,,,,,,,,,,,,,,,,,,,,,,,,,,,,,,,,,,,,,,,,,,,,,,,,,,,,,,,,,,,,,,,,,,,,,,,,,,,,,,,,,,,,,,,return,12.823705, a few notes on a piano,0,5,5,77,1,SoundMST/Piano_D.wav,SAME,,
,,,,,,,,,,,,,,5cc7443b836ddc0016fec706,61,2021-03-24_21h46.14.303,CombinedMST_OA,2020.2.10,Linux x86_64,60,,,,,,,,,,,,,,,,,,,,,,,,,,,,,,,,,,,,,,,,,,,,,,,,,,,,,,,,,,,,,,,,,,,,,,,,,,,,,,,,,,,,,,,,,,,,,,,,,,,,,return,15.212615, a sort of fake lion roar,0,6,6,43,1,SoundMST/Growl_G.wav,SIMILAR,,
,,,,,,,,,,,,,,5cc7443b836ddc0016fec706,61,2021-03-24_21h46.14.303,CombinedMST_OA,2020.2.10,Linux x86_64,60,,,,,,,,,,,,,,,,,,,,,,,,,,,,,,,,,,,,,,,,,,,,,,,,,,,,,,,,,,,,,,,,,,,,,,,,,,,,,,,,,,,,,,,,,,,,,,,,,,,,,return,13.92533, a noisy slurping drinker,0,7,7,66,1,SoundMST/Slurp.wav,SAME,,
,,,,,,,,,,,,,,5cc7443b836ddc0016fec706,61,2021-03-24_21h46.14.303,CombinedMST_OA,2020.2.10,Linux x86_64,60,,,,,,,,,,,,,,,,,,,,,,,,,,,,,,,,,,,,,,,,,,,,,,,,,,,,,,,,,,,,,,,,,,,,,,,,,,,,,,,,,,,,,,,,,,,,,,,,,,,,,return,15.077825, a sheep baah-ing,0,8,8,20,1,SoundMST/Goat_C.wav,SIMILAR,,
,,,,,,,,,,,,,,5cc7443b836ddc0016fec706,61,2021-03-24_21h46.14.303,CombinedMST_OA,2020.2.10,Linux x86_64,60,,,,,,,,,,,,,,,,,,,,,,,,,,,,,,,,,,,,,,,,,,,,,,,,,,,,,,,,,,,,,,,,,,,,,,,,,,,,,,,,,,,,,,,,,,,,,,,,,,,,,return,30.56258, a cuckoo clock sounding 2 o'clock,0,9,9,75,1,SoundMST/Cuckoo_A.wav,SAME,,
,,,,,,,,,,,,,,5cc7443b836ddc0016fec706,61,2021-03-24_21h46.14.303,CombinedMST_OA,2020.2.10,Linux x86_64,60,,,,,,,,,,,,,,,,,,,,,,,,,,,,,,,,,,,,,,,,,,,,,,,,,,,,,,,,,,,,,,,,,,,,,,,,,,,,,,,,,,,,,,,,,,,,,,,,,,,,,return,19.428735, a cup being put back on a saucer,0,10,10,68,1,SoundMST/Cup.wav,SAME,,
,,,,,,,,,,,,,,5cc7443b836ddc0016fec706,61,2021-03-24_21h46.14.303,CombinedMST_OA,2020.2.10,Linux x86_64,60,,,,,,,,,,,,,,,,,,,,,,,,,,,,,,,,,,,,,,,,,,,,,,,,,,,,,,,,,,,,,,,,,,,,,,,,,,,,,,,,,,,,,,,,,,,,,,,,,,,,,return,25.57873, a small electric motor moving something springy,0,11,11,83,1,SoundMST/Printer.wav,SAME,,
,,,,,,,,,,,,,,5cc7443b836ddc0016fec706,61,2021-03-24_21h46.14.303,CombinedMST_OA,2020.2.10,Linux x86_64,60,,,,,,,,,,,,,,,,,,,,,,,,,,,,,,,,,,,,,,,,,,,,,,,,,,,,,,,,,,,,,,,,,,,,,,,,,,,,,,,,,,,,,,,,,,,,,,,,,,,,,return,11.845615, an elephant trumpeting,0,12,12,0,1,SoundMST/Elephant_A.wav,SIMILAR,,
,,,,,,,,,,,,,,5cc7443b836ddc0016fec706,61,2021-03-24_21h46.14.303,CombinedMST_OA,2020.2.10,Linux x86_64,60,,,,,,,,,,,,,,,,,,,,,,,,,,,,,,,,,,,,,,,,,,,,,,,,,,,,,,,,,,,,,,,,,,,,,,,,,,,,,,,,,,,,,,,,,,,,,,,,,,,,,return,13.579585, dice going into a glass,0,13,13,57,1,SoundMST/IceDrop.wav,SAME,,
,,,,,,,,,,,,,,5cc7443b836ddc0016fec706,61,2021-03-24_21h46.14.303,CombinedMST_OA,2020.2.10,Linux x86_64,60,,,,,,,,,,,,,,,,,,,,,,,,,,,,,,,,,,,,,,,,,,,,,,,,,,,,,,,,,,,,,,,,,,,,,,,,,,,,,,,,,,,,,,,,,,,,,,,,,,,,,return,16.44307, a man coughing a bit,0,14,14,6,1,SoundMST/Cough_F.wav,SIMILAR,,
,,,,,,,,,,,,,,5cc7443b836ddc0016fec706,61,2021-03-24_21h46.14.303,CombinedMST_OA,2020.2.10,Linux x86_64,60,,,,,,,,,,,,,,,,,,,,,,,,,,,,,,,,,,,,,,,,,,,,,,,,,,,,,,,,,,,,,,,,,,,,,,,,,,,,,,,,,,,,,,,,,,,,,,,,,,,,,return,9.861395, an elephant trumpeting,0,15,15,24,1,SoundMST/Elephant_C.wav,SIMILAR,,
,,,,,,,,,,,,,,5cc7443b836ddc0016fec706,61,2021-03-24_21h46.14.303,CombinedMST_OA,2020.2.10,Linux x86_64,60,,,,,,,,,,,,,,,,,,,,,,,,,,,,,,,,,,,,,,,,,,,,,,,,,,,,,,,,,,,,,,,,,,,,,,,,,,,,,,,,,,,,,,,,,,,,,,,,,,,,,return,19.379885, sounds like an electric baby,0,16,16,4,1,SoundMST/Baby_E.wav,SIMILAR,,
,,,,,,,,,,,,,,5cc7443b836ddc0016fec706,61,2021-03-24_21h46.14.303,CombinedMST_OA,2020.2.10,Linux x86_64,60,,,,,,,,,,,,,,,,,,,,,,,,,,,,,,,,,,,,,,,,,,,,,,,,,,,,,,,,,,,,,,,,,,,,,,,,,,,,,,,,,,,,,,,,,,,,,,,,,,,,,return,16.72728, Fireworks whistling and sparkling,0,17,17,78,1,SoundMST/Fireworks.wav,SAME,,
,,,,,,,,,,,,,,5cc7443b836ddc0016fec706,61,2021-03-24_21h46.14.303,CombinedMST_OA,2020.2.10,Linux x86_64,60,,,,,,,,,,,,,,,,,,,,,,,,,,,,,,,,,,,,,,,,,,,,,,,,,,,,,,,,,,,,,,,,,,,,,,,,,,,,,,,,,,,,,,,,,,,,,,,,,,,,,return,20.95961, a starter motor starting an IC engine,0,18,18,22,1,SoundMST/CarStart_F.wav,SIMILAR,,
,,,,,,,,,,,,,,5cc7443b836ddc0016fec706,61,2021-03-24_21h46.14.303,CombinedMST_OA,2020.2.10,Linux x86_64,60,,,,,,,,,,,,,,,,,,,,,,,,,,,,,,,,,,,,,,,,,,,,,,,,,,,,,,,,,,,,,,,,,,,,,,,,,,,,,,,,,,,,,,,,,,,,,,,,,,,,,return,22.87792, a old phone bell phone ringing,0,19,19,13,1,SoundMST/Phone_E.wav,SIMILAR,,
,,,,,,,,,,,,,,5cc7443b836ddc0016fec706,61,2021-03-24_21h46.14.303,CombinedMST_OA,2020.2.10,Linux x86_64,60,,,,,,,,,,,,,,,,,,,,,,,,,,,,,,,,,,,,,,,,,,,,,,,,,,,,,,,,,,,,,,,,,,,,,,,,,,,,,,,,,,,,,,,,,,,,,,,,,,,,,return,18.295815, someone walking up uncarpeted stairs,0,20,20,16,1,SoundMST/Footsteps_F.wav,SIMILAR,,
,,,,,,,,,,,,,,5cc7443b836ddc0016fec706,61,2021-03-24_21h46.14.303,CombinedMST_OA,2020.2.10,Linux x86_64,60,,,,,,,,,,,,,,,,,,,,,,,,,,,,,,,,,,,,,,,,,,,,,,,,,,,,,,,,,,,,,,,,,,,,,,,,,,,,,,,,,,,,,,,,,,,,,,,,,,,,,return,11.96627,  a strimmer whirring,0,21,21,62,1,SoundMST/Airplane_B.wav,SAME,,
,,,,,,,,,,,,,,5cc7443b836ddc0016fec706,61,2021-03-24_21h46.14.303,CombinedMST_OA,2020.2.10,Linux x86_64,60,,,,,,,,,,,,,,,,,,,,,,,,,,,,,,,,,,,,,,,,,,,,,,,,,,,,,,,,,,,,,,,,,,,,,,,,,,,,,,,,,,,,,,,,,,,,,,,,,,,,,return,12.29407, a bugle call,0,22,22,63,1,SoundMST/Trumpet_B.wav,SAME,,
,,,,,,,,,,,,,,5cc7443b836ddc0016fec706,61,2021-03-24_21h46.14.303,CombinedMST_OA,2020.2.10,Linux x86_64,60,,,,,,,,,,,,,,,,,,,,,,,,,,,,,,,,,,,,,,,,,,,,,,,,,,,,,,,,,,,,,,,,,,,,,,,,,,,,,,,,,,,,,,,,,,,,,,,,,,,,,return,13.361845, a police car siren,0,23,23,38,1,SoundMST/Siren_E.wav,SIMILAR,,
,,,,,,,,,,,,,,5cc7443b836ddc0016fec706,61,2021-03-24_21h46.14.303,CombinedMST_OA,2020.2.10,Linux x86_64,60,,,,,,,,,,,,,,,,,,,,,,,,,,,,,,,,,,,,,,,,,,,,,,,,,,,,,,,,,,,,,,,,,,,,,,,,,,,,,,,,,,,,,,,,,,,,,,,,,,,,,return,15.729385, sounds like an electric bee buzzing,0,24,24,53,1,SoundMST/Mosquito_B.wav,SAME,,
,,,,,,,,,,,,,,5cc7443b836ddc0016fec706,61,2021-03-24_21h46.14.303,CombinedMST_OA,2020.2.10,Linux x86_64,60,,,,,,,,,,,,,,,,,,,,,,,,,,,,,,,,,,,,,,,,,,,,,,,,,,,,,,,,,,,,,,,,,,,,,,,,,,,,,,,,,,,,,,,,,,,,,,,,,,,,,return,25.978955, someone scooping coins of a counter into their hand,0,25,25,18,1,SoundMST/Coin_E.wav,SIMILAR,,
,,,,,,,,,,,,,,5cc7443b836ddc0016fec706,61,2021-03-24_21h46.14.303,CombinedMST_OA,2020.2.10,Linux x86_64,60,,,,,,,,,,,,,,,,,,,,,,,,,,,,,,,,,,,,,,,,,,,,,,,,,,,,,,,,,,,,,,,,,,,,,,,,,,,,,,,,,,,,,,,,,,,,,,,,,,,,,return,12.39794, paper being torn,0,26,26,81,1,SoundMST/PaperRip.wav,SAME,,
,,,,,,,,,,,,,,5cc7443b836ddc0016fec706,61,2021-03-24_21h46.14.303,CombinedMST_OA,2020.2.10,Linux x86_64,60,,,,,,,,,,,,,,,,,,,,,,,,,,,,,,,,,,,,,,,,,,,,,,,,,,,,,,,,,,,,,,,,,,,,,,,,,,,,,,,,,,,,,,,,,,,,,,,,,,,,,return,20.07852,a  thunder sound effect,0,27,27,48,1,SoundMST/Thunder_A.wav,SAME,,
,,,,,,,,,,,,,,5cc7443b836ddc0016fec706,61,2021-03-24_21h46.14.303,CombinedMST_OA,2020.2.10,Linux x86_64,60,,,,,,,,,,,,,,,,,,,,,,,,,,,,,,,,,,,,,,,,,,,,,,,,,,,,,,,,,,,,,,,,,,,,,,,,,,,,,,,,,,,,,,,,,,,,,,,,,,,,,return,12.838655, something rubbing,0,28,28,3,1,SoundMST/Writing_C.wav,SIMILAR,,
,,,,,,,,,,,,,,5cc7443b836ddc0016fec706,61,2021-03-24_21h46.14.303,CombinedMST_OA,2020.2.10,Linux x86_64,60,,,,,,,,,,,,,,,,,,,,,,,,,,,,,,,,,,,,,,,,,,,,,,,,,,,,,,,,,,,,,,,,,,,,,,,,,,,,,,,,,,,,,,,,,,,,,,,,,,,,,return,18.407485, some animal breathing,0,29,29,19,1,SoundMST/Growl_H.wav,SIMILAR,,
,,,,,,,,,,,,,,5cc7443b836ddc0016fec706,61,2021-03-24_21h46.14.303,CombinedMST_OA,2020.2.10,Linux x86_64,60,,,,,,,,,,,,,,,,,,,,,,,,,,,,,,,,,,,,,,,,,,,,,,,,,,,,,,,,,,,,,,,,,,,,,,,,,,,,,,,,,,,,,,,,,,,,,,,,,,,,,return,20.983585, a bullfrog rebbit sound,0,30,30,73,1,SoundMST/Bullfrog.wav,SAME,,
,,,,,,,,,,,,,,5cc7443b836ddc0016fec706,61,2021-03-24_21h46.14.303,CombinedMST_OA,2020.2.10,Linux x86_64,60,,,,,,,,,,,,,,,,,,,,,,,,,,,,,,,,,,,,,,,,,,,,,,,,,,,,,,,,,,,,,,,,,,,,,,,,,,,,,,,,,,,,,,,,,,,,,,,,,,,,,return,14.113775, a church bell,0,31,31,2,1,SoundMST/Chime_A.wav,SIMILAR,,
,,,,,,,,,,,,,,5cc7443b836ddc0016fec706,61,2021-03-24_21h46.14.303,CombinedMST_OA,2020.2.10,Linux x86_64,60,,,,,,,,,,,,,,,,,,,,,,,,,,,,,,,,,,,,,,,,,,,,,,,,,,,,,,,,,,,,,,,,,,,,,,,,,,,,,,,,,,,,,,,,,,,,,,,,,,,,,return,16.12093, writing with a felt tip,0,32,32,27,1,SoundMST/Writing_A.wav,SIMILAR,,
,,,,,,,,,,,,,,5cc7443b836ddc0016fec706,61,2021-03-24_21h46.14.303,CombinedMST_OA,2020.2.10,Linux x86_64,60,,,,,,,,,,,,,,,,,,,,,,,,,,,,,,,,,,,,,,,,,,,,,,,,,,,,,,,,,,,,,,,,,,,,,,,,,,,,,,,,,,,,,,,,,,,,,,,,,,,,,return,7.379135, a man whistling,0,33,33,67,1,SoundMST/ManWhistle.wav,SAME,,
,,,,,,,,,,,,,,5cc7443b836ddc0016fec706,61,2021-03-24_21h46.14.303,CombinedMST_OA,2020.2.10,Linux x86_64,60,,,,,,,,,,,,,,,,,,,,,,,,,,,,,,,,,,,,,,,,,,,,,,,,,,,,,,,,,,,,,,,,,,,,,,,,,,,,,,,,,,,,,,,,,,,,,,,,,,,,,return,17.779595, an american steam train hooter,0,34,34,86,1,SoundMST/Steam.wav,SAME,,
,,,,,,,,,,,,,,5cc7443b836ddc0016fec706,61,2021-03-24_21h46.14.303,CombinedMST_OA,2020.2.10,Linux x86_64,60,,,,,,,,,,,,,,,,,,,,,,,,,,,,,,,,,,,,,,,,,,,,,,,,,,,,,,,,,,,,,,,,,,,,,,,,,,,,,,,,,,,,,,,,,,,,,,,,,,,,,return,21.239175,  something being rubbed over fine serrations,0,35,35,58,1,SoundMST/Puff_A.wav,SAME,,
,,,,,,,,,,,,,,5cc7443b836ddc0016fec706,61,2021-03-24_21h46.14.303,CombinedMST_OA,2020.2.10,Linux x86_64,60,,,,,,,,,,,,,,,,,,,,,,,,,,,,,,,,,,,,,,,,,,,,,,,,,,,,,,,,,,,,,,,,,,,,,,,,,,,,,,,,,,,,,,,,,,,,,,,,,,,,,return,9.56122, a police car siren,0,36,36,14,1,SoundMST/Siren_A.wav,SIMILAR,,
,,,,,,,,,,,,,,5cc7443b836ddc0016fec706,61,2021-03-24_21h46.14.303,CombinedMST_OA,2020.2.10,Linux x86_64,60,,,,,,,,,,,,,,,,,,,,,,,,,,,,,,,,,,,,,,,,,,,,,,,,,,,,,,,,,,,,,,,,,,,,,,,,,,,,,,,,,,,,,,,,,,,,,,,,,,,,,return,12.99336, several people clapping applause,0,37,37,23,1,SoundMST/Clap_C.wav,SIMILAR,,
,,,,,,,,,,,,,,5cc7443b836ddc0016fec706,61,2021-03-24_21h46.14.303,CombinedMST_OA,2020.2.10,Linux x86_64,60,,,,,,,,,,,,,,,,,,,,,,,,,,,,,,,,,,,,,,,,,,,,,,,,,,,,,,,,,,,,,,,,,,,,,,,,,,,,,,,,,,,,,,,,,,,,,,,,,,,,,return,15.950315, several people laughing out loud,0,38,38,33,1,SoundMST/Laugh_A.wav,SIMILAR,,
,,,,,,,,,,,,,,5cc7443b836ddc0016fec706,61,2021-03-24_21h46.14.303,CombinedMST_OA,2020.2.10,Linux x86_64,60,,,,,,,,,,,,,,,,,,,,,,,,,,,,,,,,,,,,,,,,,,,,,,,,,,,,,,,,,,,,,,,,,,,,,,,,,,,,,,,,,,,,,,,,,,,,,,,,,,,,,return,11.402235, an old toilet flush,0,39,39,51,1,SoundMST/Toilet_B.wav,SAME,,
,,,,,,,,,,,,,,5cc7443b836ddc0016fec706,61,2021-03-24_21h46.14.303,CombinedMST_OA,2020.2.10,Linux x86_64,60,,,,,,,,,,,,,,,,,,,,,,,,,,,,,,,,,,,,,,,,,,,,,,,,,,,,,,,,,,,,,,,,,,,,,,,,,,,,,,,,,,,,,,,,,,,,,,,,,,,,,return,14.977625, a sheep baah sound effect,0,40,40,44,1,SoundMST/Goat_B.wav,SIMILAR,,
,,,,,,,,,,,,,,5cc7443b836ddc0016fec706,61,2021-03-24_21h46.14.303,CombinedMST_OA,2020.2.10,Linux x86_64,60,,,,,,,,,,,,,,,,,,,,,,,,,,,,,,,,,,,,,,,,,,,,,,,,,,,,,,,,,,,,,,,,,,,,,,,,,,,,,,,,,,,,,,,,,,,,,,,,,,,,,return,12.24984, someone eating a crunchy crisp,0,41,41,36,1,SoundMST/Chomp_A.wav,SIMILAR,,
,,,,,,,,,,,,,,5cc7443b836ddc0016fec706,61,2021-03-24_21h46.14.303,CombinedMST_OA,2020.2.10,Linux x86_64,60,,,,,,,,,,,,,,,,,,,,,,,,,,,,,,,,,,,,,,,,,,,,,,,,,,,,,,,,,,,,,,,,,,,,,,,,,,,,,,,,,,,,,,,,,,,,,,,,,,,,,return,6.676175, a dog barking,0,42,42,17,1,SoundMST/Dog_F.wav,SIMILAR,,
,,,,,,,,,,,,,,5cc7443b836ddc0016fec706,61,2021-03-24_21h46.14.303,CombinedMST_OA,2020.2.10,Linux x86_64,60,,,,,,,,,,,,,,,,,,,,,,,,,,,,,,,,,,,,,,,,,,,,,,,,,,,,,,,,,,,,,,,,,,,,,,,,,,,,,,,,,,,,,,,,,,,,,,,,,,,,,return,11.695975, three drips into water,0,43,43,85,1,SoundMST/Droplet_B.wav,SAME,,
,,,,,,,,,,,,,,5cc7443b836ddc0016fec706,61,2021-03-24_21h46.14.303,CombinedMST_OA,2020.2.10,Linux x86_64,60,,,,,,,,,,,,,,,,,,,,,,,,,,,,,,,,,,,,,,,,,,,,,,,,,,,,,,,,,,,,,,,,,,,,,,,,,,,,,,,,,,,,,,,,,,,,,,,,,,,,,return,17.53116,an electric call,0,44,44,32,1,SoundMST/Duck_C.wav,SIMILAR,,
,,,,,,,,,,,,,,5cc7443b836ddc0016fec706,61,2021-03-24_21h46.14.303,CombinedMST_OA,2020.2.10,Linux x86_64,60,,,,,,,,,,,,,,,,,,,,,,,,,,,,,,,,,,,,,,,,,,,,,,,,,,,,,,,,,,,,,,,,,,,,,,,,,,,,,,,,,,,,,,,,,,,,,,,,,,,,,return,7.92018, a howling wind,0,45,45,55,1,SoundMST/Wind_B.wav,SAME,,
,,,,,,,,,,,,,,5cc7443b836ddc0016fec706,61,2021-03-24_21h46.14.303,CombinedMST_OA,2020.2.10,Linux x86_64,60,,,,,,,,,,,,,,,,,,,,,,,,,,,,,,,,,,,,,,,,,,,,,,,,,,,,,,,,,,,,,,,,,,,,,,,,,,,,,,,,,,,,,,,,,,,,,,,,,,,,,return,16.829895, an aerosol horn,0,46,46,70,1,SoundMST/Airhorn.wav,SAME,,
,,,,,,,,,,,,,,5cc7443b836ddc0016fec706,61,2021-03-24_21h46.14.303,CombinedMST_OA,2020.2.10,Linux x86_64,60,,,,,,,,,,,,,,,,,,,,,,,,,,,,,,,,,,,,,,,,,,,,,,,,,,,,,,,,,,,,,,,,,,,,,,,,,,,,,,,,,,,,,,,,,,,,,,,,,,,,,return,20.3282,rotating helicopter blade thumps,0,47,47,79,1,SoundMST/Helicopter_A.wav,SAME,,
,,,,,,,,,,,,,,5cc7443b836ddc0016fec706,61,2021-03-24_21h46.14.303,CombinedMST_OA,2020.2.10,Linux x86_64,60,,,,,,,,,,,,,,,,,,,,,,,,,,,,,,,,,,,,,,,,,,,,,,,,,,,,,,,,,,,,,,,,,,,,,,,,,,,,,,,,,,,,,,,,,,,,,,,,,,,,,return,9.922635, a phone dial tome,0,48,48,54,1,SoundMST/DialTone.wav,SAME,,
,,,,,,,,,,,,,,5cc7443b836ddc0016fec706,61,2021-03-24_21h46.14.303,CombinedMST_OA,2020.2.10,Linux x86_64,60,,,,,,,,,,,,,,,,,,,,,,,,,,,,,,,,,,,,,,,,,,,,,,,,,,,,,,,,,,,,,,,,,,,,,,,,,,,,,,,,,,,,,,,,,,,,,,,,,,,,,return,12.33003, someone eating a crunchy crisp,0,49,49,12,1,SoundMST/Chomp_C.wav,SIMILAR,,
,,,,,,,,,,,,,,5cc7443b836ddc0016fec706,61,2021-03-24_21h46.14.303,CombinedMST_OA,2020.2.10,Linux x86_64,60,,,,,,,,,,,,,,,,,,,,,,,,,,,,,,,,,,,,,,,,,,,,,,,,,,,,,,,,,,,,,,,,,,,,,,,,,,,,,,,,,,,,,,,,,,,,,,,,,,,,,return,7.543585, a guitar chord,0,50,50,59,1,SoundMST/Guitar_B.wav,SAME,,
,,,,,,,,,,,,,,5cc7443b836ddc0016fec706,61,2021-03-24_21h46.14.303,CombinedMST_OA,2020.2.10,Linux x86_64,60,,,,,,,,,,,,,,,,,,,,,,,,,,,,,,,,,,,,,,,,,,,,,,,,,,,,,,,,,,,,,,,,,,,,,,,,,,,,,,,,,,,,,,,,,,,,,,,,,,,,,return,11.056875, an electric drill motor,0,51,51,74,1,SoundMST/HairDryer_A.wav,SAME,,
,,,,,,,,,,,,,,5cc7443b836ddc0016fec706,61,2021-03-24_21h46.14.303,CombinedMST_OA,2020.2.10,Linux x86_64,60,,,,,,,,,,,,,,,,,,,,,,,,,,,,,,,,,,,,,,,,,,,,,,,,,,,,,,,,,,,,,,,,,,,,,,,,,,,,,,,,,,,,,,,,,,,,,,,,,,,,,return,5.512005, a cow mooing,0,52,52,71,1,SoundMST/Cow.wav,SAME,,
,,,,,,,,,,,,,,5cc7443b836ddc0016fec706,61,2021-03-24_21h46.14.303,CombinedMST_OA,2020.2.10,Linux x86_64,60,,,,,,,,,,,,,,,,,,,,,,,,,,,,,,,,,,,,,,,,,,,,,,,,,,,,,,,,,,,,,,,,,,,,,,,,,,,,,,,,,,,,,,,,,,,,,,,,,,,,,return,14.81399, a cellphone vibrate sounding,0,53,53,52,1,SoundMST/Buzz.wav,SAME,,
,,,,,,,,,,,,,,5cc7443b836ddc0016fec706,61,2021-03-24_21h46.14.303,CombinedMST_OA,2020.2.10,Linux x86_64,60,,,,,,,,,,,,,,,,,,,,,,,,,,,,,,,,,,,,,,,,,,,,,,,,,,,,,,,,,,,,,,,,,,,,,,,,,,,,,,,,,,,,,,,,,,,,,,,,,,,,,return,18.08268, water from a tap hitting a container,0,54,54,29,1,SoundMST/Faucet_A.wav,SIMILAR,,
,,,,,,,,,,,,,,5cc7443b836ddc0016fec706,61,2021-03-24_21h46.14.303,CombinedMST_OA,2020.2.10,Linux x86_64,60,,,,,,,,,,,,,,,,,,,,,,,,,,,,,,,,,,,,,,,,,,,,,,,,,,,,,,,,,,,,,,,,,,,,,,,,,,,,,,,,,,,,,,,,,,,,,,,,,,,,,return,10.260285, an electric donkey braying,0,55,55,87,1,SoundMST/Donkey.wav,SAME,,
,,,,,,,,,,,,,,5cc7443b836ddc0016fec706,61,2021-03-24_21h46.14.303,CombinedMST_OA,2020.2.10,Linux x86_64,60,,,,,,,,,,,,,,,,,,,,,,,,,,,,,,,,,,,,,,,,,,,,,,,,,,,,,,,,,,,,,,,,,,,,,,,,,,,,,,,,,,,,,,,,,,,,,,,,,,,,,return,26.649155, someone swiping some coins of a counter into their hand,0,56,56,42,1,SoundMST/Coin_D.wav,SIMILAR,,
,,,,,,,,,,,,,,5cc7443b836ddc0016fec706,61,2021-03-24_21h46.14.303,CombinedMST_OA,2020.2.10,Linux x86_64,60,,,,,,,,,,,,,,,,,,,,,,,,,,,,,,,,,,,,,,,,,,,,,,,,,,,,,,,,,,,,,,,,,,,,,,,,,,,,,,,,,,,,,,,,,,,,,,,,,,,,,return,7.027395, a crow cawing,0,57,57,15,1,SoundMST/Crow_A.wav,SIMILAR,,
,,,,,,,,,,,,,,5cc7443b836ddc0016fec706,61,2021-03-24_21h46.14.303,CombinedMST_OA,2020.2.10,Linux x86_64,60,,,,,,,,,,,,,,,,,,,,,,,,,,,,,,,,,,,,,,,,,,,,,,,,,,,,,,,,,,,,,,,,,,,,,,,,,,,,,,,,,,,,,,,,,,,,,,,,,,,,,return,6.384625, a cat mewing,0,58,58,65,1,SoundMST/Cat_A.wav,SAME,,
,,,,,,,,,,,,,,5cc7443b836ddc0016fec706,61,2021-03-24_21h46.14.303,CombinedMST_OA,2020.2.10,Linux x86_64,60,,,,,,,,,,,,,,,,,,,,,,,,,,,,,,,,,,,,,,,,,,,,,,,,,,,,,,,,,,,,,,,,,,,,,,,,,,,,,,,,,,,,,,,,,,,,,,,,,,,,,return,18.496815, a starter motor starting an IC engine,0,59,59,46,1,SoundMST/CarStart_E.wav,SIMILAR,,
,,,,,,,,,,,,,,5cc7443b836ddc0016fec706,61,2021-03-24_21h46.14.303,CombinedMST_OA,2020.2.10,Linux x86_64,60,,,,,,,,,,,,,,,,,,,,,,,,,,,,,,,,,,,,,,,,,,,,,,,,,,,,,,,,,,,,,,,,,,,,,,,,,,,,,,,,,,,,,,,,,,,,,,,,,,,,,return,25.474175, liquid being poured into a container,0,60,60,1,1,SoundMST/Pour_C.wav,SIMILAR,,
,,,,,,,,,,,,,,5cc7443b836ddc0016fec706,61,2021-03-24_21h46.14.303,CombinedMST_OA,2020.2.10,Linux x86_64,60,,,,,,,,,,,,,,,,,,,,,,,,,,,,,,,,,,,,,,,,,,,,,,,,,,,,,,,,,,,,,,,,,,,,,,,,,,,,,,,,,,,,,,,,,,,,,,,,,,,,,return,14.92697, an old camera with a motor drive firing,0,61,61,84,1,SoundMST/Camera.wav,SAME,,
,,,,,,,,,,,,,,5cc7443b836ddc0016fec706,61,2021-03-24_21h46.14.303,CombinedMST_OA,2020.2.10,Linux x86_64,60,,,,,,,,,,,,,,,,,,,,,,,,,,,,,,,,,,,,,,,,,,,,,,,,,,,,,,,,,,,,,,,,,,,,,,,,,,,,,,,,,,,,,,,,,,,,,,,,,,,,,return,10.2935, a duck caller,0,62,62,8,1,SoundMST/Duck_D.wav,SIMILAR,,
,,,,,,,,,,,,,,5cc7443b836ddc0016fec706,61,2021-03-24_21h46.14.303,CombinedMST_OA,2020.2.10,Linux x86_64,60,,,,,,,,,,,,,,,,,,,,,,,,,,,,,,,,,,,,,,,,,,,,,,,,,,,,,,,,,,,,,,,,,,,,,,,,,,,,,,,,,,,,,,,,,,,,,,,,,,,,,return,11.010725, a bird cheeping outside,0,63,63,7,1,SoundMST/Bird_A.wav,SIMILAR,,
,,,,,,,,,,,,,,5cc7443b836ddc0016fec706,61,2021-03-24_21h46.14.303,CombinedMST_OA,2020.2.10,Linux x86_64,60,,,,,,,,,,,,,,,,,,,,,,,,,,,,,,,,,,,,,,,,,,,,,,,,,,,,,,,,,,,,,,,,,,,,,,,,,,,,,,,,,,,,,,,,,,,,,,,,,,,,,return,10.278335, a bird cheeping outside,0,64,64,31,1,SoundMST/Bird_E.wav,SIMILAR,,
,,,,,,,,,,,,,,5cc7443b836ddc0016fec706,61,2021-03-24_21h46.14.303,CombinedMST_OA,2020.2.10,Linux x86_64,60,,,,,,,,,,,,,,,,,,,,,,,,,,,,,,,,,,,,,,,,,,,,,,,,,,,,,,,,,,,,,,,,,,,,,,,,,,,,,,,,,,,,,,,,,,,,,,,,,,,,,return,14.619725, some stuff falling over,0,65,65,72,1,SoundMST/Bowlingpins.wav,SAME,,
,,,,,,,,,,,,,,5cc7443b836ddc0016fec706,61,2021-03-24_21h46.14.303,CombinedMST_OA,2020.2.10,Linux x86_64,60,,,,,,,,,,,,,,,,,,,,,,,,,,,,,,,,,,,,,,,,,,,,,,,,,,,,,,,,,,,,,,,,,,,,,,,,,,,,,,,,,,,,,,,,,,,,,,,,,,,,,return,9.22892, a man coughing gently,0,66,66,30,1,SoundMST/Cough_D.wav,SIMILAR,,
,,,,,,,,,,,,,,5cc7443b836ddc0016fec706,61,2021-03-24_21h46.14.303,CombinedMST_OA,2020.2.10,Linux x86_64,60,,,,,,,,,,,,,,,,,,,,,,,,,,,,,,,,,,,,,,,,,,,,,,,,,,,,,,,,,,,,,,,,,,,,,,,,,,,,,,,,,,,,,,,,,,,,,,,,,,,,,return,10.84417, a spray head spraying water,0,67,67,5,1,SoundMST/Faucet_C.wav,SIMILAR,,
,,,,,,,,,,,,,,5cc7443b836ddc0016fec706,61,2021-03-24_21h46.14.303,CombinedMST_OA,2020.2.10,Linux x86_64,60,,,,,,,,,,,,,,,,,,,,,,,,,,,,,,,,,,,,,,,,,,,,,,,,,,,,,,,,,,,,,,,,,,,,,,,,,,,,,,,,,,,,,,,,,,,,,,,,,,,,,return,19.960595, a chello being played,0,68,68,61,1,SoundMST/Cello.wav,SAME,,
,,,,,,,,,,,,,,5cc7443b836ddc0016fec706,61,2021-03-24_21h46.14.303,CombinedMST_OA,2020.2.10,Linux x86_64,60,,,,,,,,,,,,,,,,,,,,,,,,,,,,,,,,,,,,,,,,,,,,,,,,,,,,,,,,,,,,,,,,,,,,,,,,,,,,,,,,,,,,,,,,,,,,,,,,,,,,,return,6.24707, a dog barking,0,69,69,41,1,SoundMST/Dog_H.wav,SIMILAR,,
,,,,,,,,,,,,,,5cc7443b836ddc0016fec706,61,2021-03-24_21h46.14.303,CombinedMST_OA,2020.2.10,Linux x86_64,60,,,,,,,,,,,,,,,,,,,,,,,,,,,,,,,,,,,,,,,,,,,,,,,,,,,,,,,,,,,,,,,,,,,,,,,,,,,,,,,,,,,,,,,,,,,,,,,,,,,,,return,15.217785, an strange baby noise,0,70,70,28,1,SoundMST/Baby_F.wav,SIMILAR,,
,,,,,,,,,,,,,,5cc7443b836ddc0016fec706,61,2021-03-24_21h46.14.303,CombinedMST_OA,2020.2.10,Linux x86_64,60,,,,,,,,,,,,,,,,,,,,,,,,,,,,,,,,,,,,,,,,,,,,,,,,,,,,,,,,,,,,,,,,,,,,,,,,,,,,,,,,,,,,,,,,,,,,,,,,,,,,,return,16.067445, fizzy liquid being pored into a container,0,71,71,25,1,SoundMST/Pour_B.wav,SIMILAR,,
,,,,,,,,,,,,,,5cc7443b836ddc0016fec706,61,2021-03-24_21h46.14.303,CombinedMST_OA,2020.2.10,Linux x86_64,60,,,,,,,,,,,,,,,,,,,,,,,,,,,,,,,,,,,,,,,,,,,,,,,,,,,,,,,,,,,,,,,,,,,,,,,,,,,,,,,,,,,,,,,,,,,,,,,,,,,,,return,15.01055, bagpipes  being played,0,72,72,69,1,SoundMST/Bagpipe.wav,SAME,,
,,,,,,,,,,,,,,5cc7443b836ddc0016fec706,61,2021-03-24_21h46.14.303,CombinedMST_OA,2020.2.10,Linux x86_64,60,,,,,,,,,,,,,,,,,,,,,,,,,,,,,,,,,,,,,,,,,,,,,,,,,,,,,,,,,,,,,,,,,,,,,,,,,,,,,,,,,,,,,,,,,,,,,,,,,,,,,return,9.046155,  a house neighing,0,73,73,82,1,SoundMST/Horse.wav,SAME,,
,,,,,,,,,,,,,,5cc7443b836ddc0016fec706,61,2021-03-24_21h46.14.303,CombinedMST_OA,2020.2.10,Linux x86_64,60,,,,,,,,,,,,,,,,,,,,,,,,,,,,,,,,,,,,,,,,,,,,,,,,,,,,,,,,,,,,,,,,,,,,,,,,,,,,,,,,,,,,,,,,,,,,,,,,,,,,,return,11.07779, a chicken clucking,0,74,74,60,1,SoundMST/Chicken_A.wav,SAME,,
,,,,,,,,,,,,,,5cc7443b836ddc0016fec706,61,2021-03-24_21h46.14.303,CombinedMST_OA,2020.2.10,Linux x86_64,60,,,,,,,,,,,,,,,,,,,,,,,,,,,,,,,,,,,,,,,,,,,,,,,,,,,,,,,,,,,,,,,,,,,,,,,,,,,,,,,,,,,,,,,,,,,,,,,,,,,,,return,12.483055, someone bashing something,0,75,75,76,1,SoundMST/Hammer_A.wav,SAME,,
,,,,,,,,,,,,,,5cc7443b836ddc0016fec706,61,2021-03-24_21h46.14.303,CombinedMST_OA,2020.2.10,Linux x86_64,60,,,,,,,,,,,,,,,,,,,,,,,,,,,,,,,,,,,,,,,,,,,,,,,,,,,,,,,,,,,,,,,,,,,,,,,,,,,,,,,,,,,,,,,,,,,,,,,,,,,,,return,9.029055, a church bell tolling,0,76,76,26,1,SoundMST/Chime_B.wav,SIMILAR,,
,,,,,,,,,,,,,,5cc7443b836ddc0016fec706,61,2021-03-24_21h46.14.303,CombinedMST_OA,2020.2.10,Linux x86_64,60,,,,,,,,,,,,,,,,,,,,,,,,,,,,,,,,,,,,,,,,,,,,,,,,,,,,,,,,,,,,,,,,,,,,,,,,,,,,,,,,,,,,,,,,,,,,,,,,,,,,,return,8.57963, several people laughing,0,77,77,9,1,SoundMST/Laugh_D.wav,SIMILAR,,
,,,,,,,,,,,,,,5cc7443b836ddc0016fec706,61,2021-03-24_21h46.14.303,CombinedMST_OA,2020.2.10,Linux x86_64,60,,,,,,,,,,,,,,,,,,,,,,,,,,,,,,,,,,,,,,,,,,,,,,,,,,,,,,,,,,,,,,,,,,,,,,,,,,,,,,,,,,,,,,,,,,,,,,,,,,,,,return,19.72869,air  bubbles popping up out of water,0,78,78,45,1,SoundMST/Bubbles_A.wav,SIMILAR,,
,,,,,,,,,,,,,,5cc7443b836ddc0016fec706,61,2021-03-24_21h46.14.303,CombinedMST_OA,2020.2.10,Linux x86_64,60,,,,,,,,,,,,,,,,,,,,,,,,,,,,,,,,,,,,,,,,,,,,,,,,,,,,,,,,,,,,,,,,,,,,,,,,,,,,,,,,,,,,,,,,,,,,,,,,,,,,,return,10.06406, a heard beating,0,79,79,56,1,SoundMST/Heartbeat.wav,SAME,,
,,,,,,,,,,,,,,5cc7443b836ddc0016fec706,61,2021-03-24_21h46.14.303,CombinedMST_OA,2020.2.10,Linux x86_64,60,,,,,,,,,,,,,,,,,,,,,,,,,,,,,,,,,,,,,,,,,,,,,,,,,,,,,,,,,,,,,,,,,,,,,,,,,,,,,,,,,,,,,,,,,,,,,,,,,,,,,return,8.160975, a crow cawing,0,80,80,39,1,SoundMST/Crow_B.wav,SIMILAR,,
,,,,,,,,,,,,,,5cc7443b836ddc0016fec706,61,2021-03-24_21h46.14.303,CombinedMST_OA,2020.2.10,Linux x86_64,60,,,,,,,,,,,,,,,,,,,,,,,,,,,,,,,,,,,,,,,,,,,,,,,,,,,,,,,,,,,,,,,,,,,,,,,,,,,,,,,,,,,,,,,,,,,,,,,,,,,,,return,17.889985, air bubbling up out of water,0,81,81,21,1,SoundMST/Bubbles_B.wav,SIMILAR,,
,,,,,,,,,,,,,,5cc7443b836ddc0016fec706,61,2021-03-24_21h46.14.303,CombinedMST_OA,2020.2.10,Linux x86_64,60,,,,,,,,,,,,,,,,,,,,,,,,,,,,,,,,,,,,,,,,,,,,,,,,,,,,,,,,,,,,,,,,,,,,,,,,,,,,,,,,,,,,,,,,,,,,,,,,,,,,,return,11.676415, a man gently snoring,0,82,82,10,1,SoundMST/Snore_E.wav,SIMILAR,,
,,,,,,,,,,,,,,5cc7443b836ddc0016fec706,61,2021-03-24_21h46.14.303,CombinedMST_OA,2020.2.10,Linux x86_64,60,,,,,,,,,,,,,,,,,,,,,,,,,,,,,,,,,,,,,,,,,,,,,,,,,,,,,,,,,,,,,,,,,,,,,,,,,,,,,,,,,,,,,,,,,,,,,,,,,,,,,return,8.043805, someone sneezing,0,83,83,64,1,SoundMST/Sneeze_B.wav,SAME,,
,,,,,,,,,,,,,,5cc7443b836ddc0016fec706,61,2021-03-24_21h46.14.303,CombinedMST_OA,2020.2.10,Linux x86_64,60,,,,,,,,,,,,,,,,,,,,,,,,,,,,,,,,,,,,,,,,,,,,,,,,,,,,,,,,,,,,,,,,,,,,,,,,,,,,,,,,,,,,,,,,,,,,,,,,,,,,,return,13.82989, someone blowing a pea whistle,0,84,84,11,1,SoundMST/Whistle_C.wav,SIMILAR,,
,,,,,,,,,,,,,,5cc7443b836ddc0016fec706,61,2021-03-24_21h46.14.303,CombinedMST_OA,2020.2.10,Linux x86_64,60,,,,,,,,,,,,,,,,,,,,,,,,,,,,,,,,,,,,,,,,,,,,,,,,,,,,,,,,,,,,,,,,,,,,,,,,,,,,,,,,,,,,,,,,,,,,,,,,,,,,,return,9.56407, someone gently snoring,0,85,85,34,1,SoundMST/Snore_D.wav,SIMILAR,,
,,,,,,,,,,,,,,5cc7443b836ddc0016fec706,61,2021-03-24_21h46.14.303,CombinedMST_OA,2020.2.10,Linux x86_64,60,,,,,,,,,,,,,,,,,,,,,,,,,,,,,,,,,,,,,,,,,,,,,,,,,,,,,,,,,,,,,,,,,,,,,,,,,,,,,,,,,,,,,,,,,,,,,,,,,,,,,return,22.78171,jingle  bells jingling,0,86,86,50,1,SoundMST/Sleighbells_B.wav,SAME,,
,,,,,,,,,,,,,,5cc7443b836ddc0016fec706,61,2021-03-24_21h46.14.303,CombinedMST_OA,2020.2.10,Linux x86_64,60,,,,,,,,,,,,,,,,,,,,,,,,,,,,,,,,,,,,,,,,,,,,,,,,,,,,,,,,,,,,,,,,,,,,,,,,,,,,,,,,,,,,,,,,,,,,,,,,,,,,,return,12.27729, an old phone bell ringing,0,87,87,37,1,SoundMST/Phone_D.wav,SIMILAR,,
,,,,,,,,,,,,,,5cc7443b836ddc0016fec706,61,2021-03-24_21h46.14.303,CombinedMST_OA,2020.2.10,Linux x86_64,60,,,,,,,,,,,,,,,,,,,,,,,,,,,,,,,,,,,,,,,,,,,,,,,,,,,,,,,,,,,,,,,,,,,,,,,,,,,,,,,,,,,,,,,,,,,,,,,,,,,,,,,,,,,,,,,space,70.1544
