VolumeContinueKey.keys,VolumeContinueKey.rt,HeadphoneContinueKey.keys,HeadphoneContinueKey.rt,CheckResp.keys,CheckResp.corr,CheckResp.rt,trials_3.thisRepN,trials_3.thisTrialN,trials_3.thisN,trials_3.thisIndex,trials_3.ran,File,Correct,participant,Age,date,expName,psychopyVersion,OS,frameRate,Welcome0ContKey.keys,Welcome0ContKey.rt,key_resp.keys,key_resp.rt,WelcomeSound2ContKey.keys,WelcomeSound2ContKey.rt,WelcomeContinueKey2.keys,WelcomeContinueKey2.rt,PracticeSoundKey.keys,PracticeSoundKey.corr,PracticeSoundKey.rt,SoundPracticeLoop.thisRepN,SoundPracticeLoop.thisTrialN,SoundPracticeLoop.thisN,SoundPracticeLoop.thisIndex,SoundPracticeLoop.ran,SoundMST_File,SoundCorrect,Correct2,SoundType,Trial,MSTSoundStrtKey.keys,MSTSoundStrtKey.rt,MSTSoundKey.keys,MSTSoundKey.corr,MSTSoundKey.rt,MSTSoundLoop.thisRepN,MSTSoundLoop.thisTrialN,MSTSoundLoop.thisN,MSTSoundLoop.thisIndex,MSTSoundLoop.ran,AttnCheck2Keys.keys,AttnCheck2Keys.rt,AttnCheck2Resp.text,SoundTask.thisRepN,SoundTask.thisTrialN,SoundTask.thisN,SoundTask.thisIndex,SoundTask.ran,Counterbalance.thisRepN,Counterbalance.thisTrialN,Counterbalance.thisN,Counterbalance.thisIndex,Counterbalance.ran,WordOrder,SoundOrder,ContinueResp.keys,ContinueResp.rt,Wel2ContinueKey.keys,Wel2ContinueKey.rt,Practice_resp.keys,Practice_resp.corr,Practice_resp.rt,PracticeTrials.thisRepN,PracticeTrials.thisTrialN,PracticeTrials.thisN,PracticeTrials.thisIndex,PracticeTrials.ran,SoundFile,Type,StartTast.keys,StartTast.rt,MST_resp.keys,MST_resp.corr,MST_resp.rt,trials.thisRepN,trials.thisTrialN,trials.thisN,trials.thisIndex,trials.ran,WordCorrect,Correct_type,WordType,Condition,Attn1ContKey.keys,Attn1ContKey.rt,AttnCheckResp.text,SyllblCheckContKey.keys,SyllblCheckContKey.rt,SyllblCheckResp.keys,SyllblCheckResp.corr,SyllblCheckResp.rt,trials_2.thisRepN,trials_2.thisTrialN,trials_2.thisN,trials_2.thisIndex,trials_2.ran,Target,Word1,Word2,Word3,WordTask.thisRepN,WordTask.thisTrialN,WordTask.thisN,WordTask.thisIndex,WordTask.ran,key_resp_4.keys,key_resp_4.rt,GuessSoundIntro2Cont.keys,GuessSoundIntro2Cont.rt,GSSubmit.keys,GSSubmit.rt,GSResponse.text,GuessSoundLoop.thisRepN,GuessSoundLoop.thisTrialN,GuessSoundLoop.thisN,GuessSoundLoop.thisIndex,GuessSoundLoop.ran,GS_File,GS_Type,ExitKey.keys,ExitKey.rt
space,2.413,space,2.459,3,1,1.335,0,0,0,4,1,Headphone/t3_1.wav,3,5ed4f048f7b6fe02e0d9ffe3,20,2021-03-24_22h54.59.559,CombinedMST_OA,2020.2.10,Win32,60,,,,,,,,,,,,,,,,,,,,,,,,,,,,,,,,,,,,,,,,,,,,,,,,,,,,,,,,,,,,,,,,,,,,,,,,,,,,,,,,,,,,,,,,,,,,,,,,,,,,,,,,,,,,,,,,
,,,,2,1,0.567,0,1,1,3,1,Headphone/t2_2.wav,2,5ed4f048f7b6fe02e0d9ffe3,20,2021-03-24_22h54.59.559,CombinedMST_OA,2020.2.10,Win32,60,,,,,,,,,,,,,,,,,,,,,,,,,,,,,,,,,,,,,,,,,,,,,,,,,,,,,,,,,,,,,,,,,,,,,,,,,,,,,,,,,,,,,,,,,,,,,,,,,,,,,,,,,,,,,,,,
,,,,1,1,0.51,0,2,2,1,1,Headphone/t1_2.wav,1,5ed4f048f7b6fe02e0d9ffe3,20,2021-03-24_22h54.59.559,CombinedMST_OA,2020.2.10,Win32,60,,,,,,,,,,,,,,,,,,,,,,,,,,,,,,,,,,,,,,,,,,,,,,,,,,,,,,,,,,,,,,,,,,,,,,,,,,,,,,,,,,,,,,,,,,,,,,,,,,,,,,,,,,,,,,,,
,,,,3,1,0.693,0,3,3,5,1,Headphone/t3_2.wav,3,5ed4f048f7b6fe02e0d9ffe3,20,2021-03-24_22h54.59.559,CombinedMST_OA,2020.2.10,Win32,60,,,,,,,,,,,,,,,,,,,,,,,,,,,,,,,,,,,,,,,,,,,,,,,,,,,,,,,,,,,,,,,,,,,,,,,,,,,,,,,,,,,,,,,,,,,,,,,,,,,,,,,,,,,,,,,,
,,,,1,1,0.503,0,4,4,0,1,Headphone/t1_1.wav,1,5ed4f048f7b6fe02e0d9ffe3,20,2021-03-24_22h54.59.559,CombinedMST_OA,2020.2.10,Win32,60,,,,,,,,,,,,,,,,,,,,,,,,,,,,,,,,,,,,,,,,,,,,,,,,,,,,,,,,,,,,,,,,,,,,,,,,,,,,,,,,,,,,,,,,,,,,,,,,,,,,,,,,,,,,,,,,
,,,,2,1,0.022,0,5,5,2,1,Headphone/t2_1.wav,2,5ed4f048f7b6fe02e0d9ffe3,20,2021-03-24_22h54.59.559,CombinedMST_OA,2020.2.10,Win32,60,,,,,,,,,,,,,,,,,,,,,,,,,,,,,,,,,,,,,,,,,,,,,,,,,,,,,,,,,,,,,,,,,,,,,,,,,,,,,,,,,,,,,,,,,,,,,,,,,,,,,,,,,,,,,,,,
,,,,,,,,,,,,,,5ed4f048f7b6fe02e0d9ffe3,20,2021-03-24_22h54.59.559,CombinedMST_OA,2020.2.10,Win32,60,space,2.392,space,5.749,space,2.012,space,2.875,2,1,11.319,0,0,0,0,1,Practice/Seagull_A.wav,2,3,NEW,Practice,,,,,,,,,,,,,,,,,,,,,,,,,,,,,,,,,,,,,,,,,,,,,,,,,,,,,,,,,,,,,,,,,,,,,,,,,,,,,,,,,,,,,,,,,,,
,,,,,,,,,,,,,,5ed4f048f7b6fe02e0d9ffe3,20,2021-03-24_22h54.59.559,CombinedMST_OA,2020.2.10,Win32,60,,,,,,,,,2,1,2.392,0,1,1,1,1,Practice/Skid_B.wav,2,3,NEW,Practice,,,,,,,,,,,,,,,,,,,,,,,,,,,,,,,,,,,,,,,,,,,,,,,,,,,,,,,,,,,,,,,,,,,,,,,,,,,,,,,,,,,,,,,,,,,
,,,,,,,,,,,,,,5ed4f048f7b6fe02e0d9ffe3,20,2021-03-24_22h54.59.559,CombinedMST_OA,2020.2.10,Win32,60,,,,,,,,,1,1,2.153,0,2,2,2,1,Practice/Seagull_A.wav,1,1,OLD,Practice,,,,,,,,,,,,,,,,,,,,,,,,,,,,,,,,,,,,,,,,,,,,,,,,,,,,,,,,,,,,,,,,,,,,,,,,,,,,,,,,,,,,,,,,,,,
,,,,,,,,,,,,,,5ed4f048f7b6fe02e0d9ffe3,20,2021-03-24_22h54.59.559,CombinedMST_OA,2020.2.10,Win32,60,,,,,,,,,2,1,1.037,0,3,3,3,1,Practice/Gargle_A.wav,2,3,NEW,Practice,,,,,,,,,,,,,,,,,,,,,,,,,,,,,,,,,,,,,,,,,,,,,,,,,,,,,,,,,,,,,,,,,,,,,,,,,,,,,,,,,,,,,,,,,,,
,,,,,,,,,,,,,,5ed4f048f7b6fe02e0d9ffe3,20,2021-03-24_22h54.59.559,CombinedMST_OA,2020.2.10,Win32,60,,,,,,,,,2,1,1.668,0,4,4,4,1,Practice/Gargle_B.wav,2,2,SIMILAR,Practice,,,,,,,,,,,,,,,,,,,,,,,,,,,,,,,,,,,,,,,,,,,,,,,,,,,,,,,,,,,,,,,,,,,,,,,,,,,,,,,,,,,,,,,,,,,
,,,,,,,,,,,,,,5ed4f048f7b6fe02e0d9ffe3,20,2021-03-24_22h54.59.559,CombinedMST_OA,2020.2.10,Win32,60,,,,,,,,,,,,,,,,,SoundMST/CarStart_E.wav,2,3,NEW,C,space,9.023,2,1,3.391,0,0,0,0,1,,,,,,,,,,,,,,,,,,,,,,,,,,,,,,,,,,,,,,,,,,,,,,,,,,,,,,,,,,,,,,,,,,,,,,,,,,,,,,,,,
,,,,,,,,,,,,,,5ed4f048f7b6fe02e0d9ffe3,20,2021-03-24_22h54.59.559,CombinedMST_OA,2020.2.10,Win32,60,,,,,,,,,,,,,,,,,SoundMST/Bird_C.wav,2,3,NEW,C,,,2,1,0.902,0,1,1,1,1,,,,,,,,,,,,,,,,,,,,,,,,,,,,,,,,,,,,,,,,,,,,,,,,,,,,,,,,,,,,,,,,,,,,,,,,,,,,,,,,,
,,,,,,,,,,,,,,5ed4f048f7b6fe02e0d9ffe3,20,2021-03-24_22h54.59.559,CombinedMST_OA,2020.2.10,Win32,60,,,,,,,,,,,,,,,,,SoundMST/Bubbles_A.wav,2,3,NEW,C,,,2,1,0.6,0,2,2,2,1,,,,,,,,,,,,,,,,,,,,,,,,,,,,,,,,,,,,,,,,,,,,,,,,,,,,,,,,,,,,,,,,,,,,,,,,,,,,,,,,,
,,,,,,,,,,,,,,5ed4f048f7b6fe02e0d9ffe3,20,2021-03-24_22h54.59.559,CombinedMST_OA,2020.2.10,Win32,60,,,,,,,,,,,,,,,,,SoundMST/Horse.wav,2,3,NEW,C,,,2,1,0.736,0,3,3,3,1,,,,,,,,,,,,,,,,,,,,,,,,,,,,,,,,,,,,,,,,,,,,,,,,,,,,,,,,,,,,,,,,,,,,,,,,,,,,,,,,,
,,,,,,,,,,,,,,5ed4f048f7b6fe02e0d9ffe3,20,2021-03-24_22h54.59.559,CombinedMST_OA,2020.2.10,Win32,60,,,,,,,,,,,,,,,,,SoundMST/IceDrop.wav,2,3,NEW,C,,,2,1,0.703,0,4,4,4,1,,,,,,,,,,,,,,,,,,,,,,,,,,,,,,,,,,,,,,,,,,,,,,,,,,,,,,,,,,,,,,,,,,,,,,,,,,,,,,,,,
,,,,,,,,,,,,,,5ed4f048f7b6fe02e0d9ffe3,20,2021-03-24_22h54.59.559,CombinedMST_OA,2020.2.10,Win32,60,,,,,,,,,,,,,,,,,SoundMST/Sleighbells_B.wav,2,3,NEW,C,,,2,1,1.002,0,5,5,5,1,,,,,,,,,,,,,,,,,,,,,,,,,,,,,,,,,,,,,,,,,,,,,,,,,,,,,,,,,,,,,,,,,,,,,,,,,,,,,,,,,
,,,,,,,,,,,,,,5ed4f048f7b6fe02e0d9ffe3,20,2021-03-24_22h54.59.559,CombinedMST_OA,2020.2.10,Win32,60,,,,,,,,,,,,,,,,,SoundMST/Growl_G.wav,2,3,NEW,C,,,2,1,0.622,0,6,6,6,1,,,,,,,,,,,,,,,,,,,,,,,,,,,,,,,,,,,,,,,,,,,,,,,,,,,,,,,,,,,,,,,,,,,,,,,,,,,,,,,,,
,,,,,,,,,,,,,,5ed4f048f7b6fe02e0d9ffe3,20,2021-03-24_22h54.59.559,CombinedMST_OA,2020.2.10,Win32,60,,,,,,,,,,,,,,,,,SoundMST/Chicken_A.wav,2,3,NEW,C,,,2,1,0.625,0,7,7,7,1,,,,,,,,,,,,,,,,,,,,,,,,,,,,,,,,,,,,,,,,,,,,,,,,,,,,,,,,,,,,,,,,,,,,,,,,,,,,,,,,,
,,,,,,,,,,,,,,5ed4f048f7b6fe02e0d9ffe3,20,2021-03-24_22h54.59.559,CombinedMST_OA,2020.2.10,Win32,60,,,,,,,,,,,,,,,,,SoundMST/Slurp.wav,2,3,NEW,C,,,2,1,0.868,0,8,8,8,1,,,,,,,,,,,,,,,,,,,,,,,,,,,,,,,,,,,,,,,,,,,,,,,,,,,,,,,,,,,,,,,,,,,,,,,,,,,,,,,,,
,,,,,,,,,,,,,,5ed4f048f7b6fe02e0d9ffe3,20,2021-03-24_22h54.59.559,CombinedMST_OA,2020.2.10,Win32,60,,,,,,,,,,,,,,,,,SoundMST/CarStart_D.wav,2,2,SIMILAR,C,,,2,1,0.569,0,9,9,9,1,,,,,,,,,,,,,,,,,,,,,,,,,,,,,,,,,,,,,,,,,,,,,,,,,,,,,,,,,,,,,,,,,,,,,,,,,,,,,,,,,
,,,,,,,,,,,,,,5ed4f048f7b6fe02e0d9ffe3,20,2021-03-24_22h54.59.559,CombinedMST_OA,2020.2.10,Win32,60,,,,,,,,,,,,,,,,,SoundMST/Printer.wav,2,3,NEW,C,,,2,1,0.552,0,10,10,10,1,,,,,,,,,,,,,,,,,,,,,,,,,,,,,,,,,,,,,,,,,,,,,,,,,,,,,,,,,,,,,,,,,,,,,,,,,,,,,,,,,
,,,,,,,,,,,,,,5ed4f048f7b6fe02e0d9ffe3,20,2021-03-24_22h54.59.559,CombinedMST_OA,2020.2.10,Win32,60,,,,,,,,,,,,,,,,,SoundMST/Bowlingpins.wav,2,3,NEW,C,,,2,1,0.635,0,11,11,11,1,,,,,,,,,,,,,,,,,,,,,,,,,,,,,,,,,,,,,,,,,,,,,,,,,,,,,,,,,,,,,,,,,,,,,,,,,,,,,,,,,
,,,,,,,,,,,,,,5ed4f048f7b6fe02e0d9ffe3,20,2021-03-24_22h54.59.559,CombinedMST_OA,2020.2.10,Win32,60,,,,,,,,,,,,,,,,,SoundMST/Fireworks.wav,2,3,NEW,C,,,2,1,0.511,0,12,12,12,1,,,,,,,,,,,,,,,,,,,,,,,,,,,,,,,,,,,,,,,,,,,,,,,,,,,,,,,,,,,,,,,,,,,,,,,,,,,,,,,,,
,,,,,,,,,,,,,,5ed4f048f7b6fe02e0d9ffe3,20,2021-03-24_22h54.59.559,CombinedMST_OA,2020.2.10,Win32,60,,,,,,,,,,,,,,,,,SoundMST/Howl.wav,2,3,NEW,C,,,2,1,0.453,0,13,13,13,1,,,,,,,,,,,,,,,,,,,,,,,,,,,,,,,,,,,,,,,,,,,,,,,,,,,,,,,,,,,,,,,,,,,,,,,,,,,,,,,,,
,,,,,,,,,,,,,,5ed4f048f7b6fe02e0d9ffe3,20,2021-03-24_22h54.59.559,CombinedMST_OA,2020.2.10,Win32,60,,,,,,,,,,,,,,,,,SoundMST/Goat_B.wav,2,3,NEW,C,,,2,1,0.505,0,14,14,14,1,,,,,,,,,,,,,,,,,,,,,,,,,,,,,,,,,,,,,,,,,,,,,,,,,,,,,,,,,,,,,,,,,,,,,,,,,,,,,,,,,
,,,,,,,,,,,,,,5ed4f048f7b6fe02e0d9ffe3,20,2021-03-24_22h54.59.559,CombinedMST_OA,2020.2.10,Win32,60,,,,,,,,,,,,,,,,,SoundMST/Horse.wav,1,1,OLD,C,,,1,1,0.669,0,15,15,15,1,,,,,,,,,,,,,,,,,,,,,,,,,,,,,,,,,,,,,,,,,,,,,,,,,,,,,,,,,,,,,,,,,,,,,,,,,,,,,,,,,
,,,,,,,,,,,,,,5ed4f048f7b6fe02e0d9ffe3,20,2021-03-24_22h54.59.559,CombinedMST_OA,2020.2.10,Win32,60,,,,,,,,,,,,,,,,,SoundMST/Laugh_A.wav,2,3,NEW,C,,,2,1,0.887,0,16,16,16,1,,,,,,,,,,,,,,,,,,,,,,,,,,,,,,,,,,,,,,,,,,,,,,,,,,,,,,,,,,,,,,,,,,,,,,,,,,,,,,,,,
,,,,,,,,,,,,,,5ed4f048f7b6fe02e0d9ffe3,20,2021-03-24_22h54.59.559,CombinedMST_OA,2020.2.10,Win32,60,,,,,,,,,,,,,,,,,SoundMST/Bubbles_B.wav,2,2,SIMILAR,C,,,1,0,0.719,0,17,17,17,1,,,,,,,,,,,,,,,,,,,,,,,,,,,,,,,,,,,,,,,,,,,,,,,,,,,,,,,,,,,,,,,,,,,,,,,,,,,,,,,,,
,,,,,,,,,,,,,,5ed4f048f7b6fe02e0d9ffe3,20,2021-03-24_22h54.59.559,CombinedMST_OA,2020.2.10,Win32,60,,,,,,,,,,,,,,,,,SoundMST/Footsteps_C.wav,2,3,NEW,C,,,2,1,0.561,0,18,18,18,1,,,,,,,,,,,,,,,,,,,,,,,,,,,,,,,,,,,,,,,,,,,,,,,,,,,,,,,,,,,,,,,,,,,,,,,,,,,,,,,,,
,,,,,,,,,,,,,,5ed4f048f7b6fe02e0d9ffe3,20,2021-03-24_22h54.59.559,CombinedMST_OA,2020.2.10,Win32,60,,,,,,,,,,,,,,,,,SoundMST/Duck_A.wav,2,3,NEW,C,,,2,1,0.392,0,19,19,19,1,,,,,,,,,,,,,,,,,,,,,,,,,,,,,,,,,,,,,,,,,,,,,,,,,,,,,,,,,,,,,,,,,,,,,,,,,,,,,,,,,
,,,,,,,,,,,,,,5ed4f048f7b6fe02e0d9ffe3,20,2021-03-24_22h54.59.559,CombinedMST_OA,2020.2.10,Win32,60,,,,,,,,,,,,,,,,,SoundMST/Cow.wav,2,3,NEW,C,,,2,1,0.537,0,20,20,20,1,,,,,,,,,,,,,,,,,,,,,,,,,,,,,,,,,,,,,,,,,,,,,,,,,,,,,,,,,,,,,,,,,,,,,,,,,,,,,,,,,
,,,,,,,,,,,,,,5ed4f048f7b6fe02e0d9ffe3,20,2021-03-24_22h54.59.559,CombinedMST_OA,2020.2.10,Win32,60,,,,,,,,,,,,,,,,,SoundMST/Airhorn.wav,2,3,NEW,C,,,2,1,0.546,0,21,21,21,1,,,,,,,,,,,,,,,,,,,,,,,,,,,,,,,,,,,,,,,,,,,,,,,,,,,,,,,,,,,,,,,,,,,,,,,,,,,,,,,,,
,,,,,,,,,,,,,,5ed4f048f7b6fe02e0d9ffe3,20,2021-03-24_22h54.59.559,CombinedMST_OA,2020.2.10,Win32,60,,,,,,,,,,,,,,,,,SoundMST/Printer.wav,1,1,OLD,C,,,2,0,0.424,0,22,22,22,1,,,,,,,,,,,,,,,,,,,,,,,,,,,,,,,,,,,,,,,,,,,,,,,,,,,,,,,,,,,,,,,,,,,,,,,,,,,,,,,,,
,,,,,,,,,,,,,,5ed4f048f7b6fe02e0d9ffe3,20,2021-03-24_22h54.59.559,CombinedMST_OA,2020.2.10,Win32,60,,,,,,,,,,,,,,,,,SoundMST/Sleighbells_B.wav,1,1,OLD,C,,,2,0,0.453,0,23,23,23,1,,,,,,,,,,,,,,,,,,,,,,,,,,,,,,,,,,,,,,,,,,,,,,,,,,,,,,,,,,,,,,,,,,,,,,,,,,,,,,,,,
,,,,,,,,,,,,,,5ed4f048f7b6fe02e0d9ffe3,20,2021-03-24_22h54.59.559,CombinedMST_OA,2020.2.10,Win32,60,,,,,,,,,,,,,,,,,SoundMST/Camera.wav,2,3,NEW,C,,,2,1,0.691,0,24,24,24,1,,,,,,,,,,,,,,,,,,,,,,,,,,,,,,,,,,,,,,,,,,,,,,,,,,,,,,,,,,,,,,,,,,,,,,,,,,,,,,,,,
,,,,,,,,,,,,,,5ed4f048f7b6fe02e0d9ffe3,20,2021-03-24_22h54.59.559,CombinedMST_OA,2020.2.10,Win32,60,,,,,,,,,,,,,,,,,SoundMST/Growl_H.wav,2,2,SIMILAR,C,,,1,0,0.642,0,25,25,25,1,,,,,,,,,,,,,,,,,,,,,,,,,,,,,,,,,,,,,,,,,,,,,,,,,,,,,,,,,,,,,,,,,,,,,,,,,,,,,,,,,
,,,,,,,,,,,,,,5ed4f048f7b6fe02e0d9ffe3,20,2021-03-24_22h54.59.559,CombinedMST_OA,2020.2.10,Win32,60,,,,,,,,,,,,,,,,,SoundMST/Whistle_B.wav,2,3,NEW,C,,,2,1,0.469,0,26,26,26,1,,,,,,,,,,,,,,,,,,,,,,,,,,,,,,,,,,,,,,,,,,,,,,,,,,,,,,,,,,,,,,,,,,,,,,,,,,,,,,,,,
,,,,,,,,,,,,,,5ed4f048f7b6fe02e0d9ffe3,20,2021-03-24_22h54.59.559,CombinedMST_OA,2020.2.10,Win32,60,,,,,,,,,,,,,,,,,SoundMST/Piano_D.wav,2,3,NEW,C,,,2,1,0.518,0,27,27,27,1,,,,,,,,,,,,,,,,,,,,,,,,,,,,,,,,,,,,,,,,,,,,,,,,,,,,,,,,,,,,,,,,,,,,,,,,,,,,,,,,,
,,,,,,,,,,,,,,5ed4f048f7b6fe02e0d9ffe3,20,2021-03-24_22h54.59.559,CombinedMST_OA,2020.2.10,Win32,60,,,,,,,,,,,,,,,,,SoundMST/Coin_D.wav,2,3,NEW,C,,,2,1,0.672,0,28,28,28,1,,,,,,,,,,,,,,,,,,,,,,,,,,,,,,,,,,,,,,,,,,,,,,,,,,,,,,,,,,,,,,,,,,,,,,,,,,,,,,,,,
,,,,,,,,,,,,,,5ed4f048f7b6fe02e0d9ffe3,20,2021-03-24_22h54.59.559,CombinedMST_OA,2020.2.10,Win32,60,,,,,,,,,,,,,,,,,SoundMST/Bird_A.wav,2,2,SIMILAR,C,,,2,1,0.503,0,29,29,29,1,,,,,,,,,,,,,,,,,,,,,,,,,,,,,,,,,,,,,,,,,,,,,,,,,,,,,,,,,,,,,,,,,,,,,,,,,,,,,,,,,
,,,,,,,,,,,,,,5ed4f048f7b6fe02e0d9ffe3,20,2021-03-24_22h54.59.559,CombinedMST_OA,2020.2.10,Win32,60,,,,,,,,,,,,,,,,,SoundMST/PaperRip.wav,2,3,NEW,C,,,2,1,1.301,0,30,30,30,1,,,,,,,,,,,,,,,,,,,,,,,,,,,,,,,,,,,,,,,,,,,,,,,,,,,,,,,,,,,,,,,,,,,,,,,,,,,,,,,,,
,,,,,,,,,,,,,,5ed4f048f7b6fe02e0d9ffe3,20,2021-03-24_22h54.59.559,CombinedMST_OA,2020.2.10,Win32,60,,,,,,,,,,,,,,,,,SoundMST/Slurp.wav,1,1,OLD,C,,,1,1,0.771,0,31,31,31,1,,,,,,,,,,,,,,,,,,,,,,,,,,,,,,,,,,,,,,,,,,,,,,,,,,,,,,,,,,,,,,,,,,,,,,,,,,,,,,,,,
,,,,,,,,,,,,,,5ed4f048f7b6fe02e0d9ffe3,20,2021-03-24_22h54.59.559,CombinedMST_OA,2020.2.10,Win32,60,,,,,,,,,,,,,,,,,SoundMST/Howl.wav,1,1,OLD,C,,,1,1,1.502,0,32,32,32,1,,,,,,,,,,,,,,,,,,,,,,,,,,,,,,,,,,,,,,,,,,,,,,,,,,,,,,,,,,,,,,,,,,,,,,,,,,,,,,,,,
,,,,,,,,,,,,,,5ed4f048f7b6fe02e0d9ffe3,20,2021-03-24_22h54.59.559,CombinedMST_OA,2020.2.10,Win32,60,,,,,,,,,,,,,,,,,SoundMST/IceDrop.wav,1,1,OLD,C,,,1,1,3.159,0,33,33,33,1,,,,,,,,,,,,,,,,,,,,,,,,,,,,,,,,,,,,,,,,,,,,,,,,,,,,,,,,,,,,,,,,,,,,,,,,,,,,,,,,,
,,,,,,,,,,,,,,5ed4f048f7b6fe02e0d9ffe3,20,2021-03-24_22h54.59.559,CombinedMST_OA,2020.2.10,Win32,60,,,,,,,,,,,,,,,,,SoundMST/Pour_B.wav,2,3,NEW,C,,,2,1,0.886,0,34,34,34,1,,,,,,,,,,,,,,,,,,,,,,,,,,,,,,,,,,,,,,,,,,,,,,,,,,,,,,,,,,,,,,,,,,,,,,,,,,,,,,,,,
,,,,,,,,,,,,,,5ed4f048f7b6fe02e0d9ffe3,20,2021-03-24_22h54.59.559,CombinedMST_OA,2020.2.10,Win32,60,,,,,,,,,,,,,,,,,SoundMST/Fireworks.wav,1,1,OLD,C,,,1,1,0.619,0,35,35,35,1,,,,,,,,,,,,,,,,,,,,,,,,,,,,,,,,,,,,,,,,,,,,,,,,,,,,,,,,,,,,,,,,,,,,,,,,,,,,,,,,,
,,,,,,,,,,,,,,5ed4f048f7b6fe02e0d9ffe3,20,2021-03-24_22h54.59.559,CombinedMST_OA,2020.2.10,Win32,60,,,,,,,,,,,,,,,,,SoundMST/Footsteps_F.wav,2,2,SIMILAR,C,,,1,0,0.684,0,36,36,36,1,,,,,,,,,,,,,,,,,,,,,,,,,,,,,,,,,,,,,,,,,,,,,,,,,,,,,,,,,,,,,,,,,,,,,,,,,,,,,,,,,
,,,,,,,,,,,,,,5ed4f048f7b6fe02e0d9ffe3,20,2021-03-24_22h54.59.559,CombinedMST_OA,2020.2.10,Win32,60,,,,,,,,,,,,,,,,,SoundMST/Chicken_A.wav,1,1,OLD,C,,,1,1,2.37,0,37,37,37,1,,,,,,,,,,,,,,,,,,,,,,,,,,,,,,,,,,,,,,,,,,,,,,,,,,,,,,,,,,,,,,,,,,,,,,,,,,,,,,,,,
,,,,,,,,,,,,,,5ed4f048f7b6fe02e0d9ffe3,20,2021-03-24_22h54.59.559,CombinedMST_OA,2020.2.10,Win32,60,,,,,,,,,,,,,,,,,SoundMST/Bullfrog.wav,2,3,NEW,C,,,2,1,0.552,0,38,38,38,1,,,,,,,,,,,,,,,,,,,,,,,,,,,,,,,,,,,,,,,,,,,,,,,,,,,,,,,,,,,,,,,,,,,,,,,,,,,,,,,,,
,,,,,,,,,,,,,,5ed4f048f7b6fe02e0d9ffe3,20,2021-03-24_22h54.59.559,CombinedMST_OA,2020.2.10,Win32,60,,,,,,,,,,,,,,,,,SoundMST/Bowlingpins.wav,1,1,OLD,C,,,1,1,1.203,0,39,39,39,1,,,,,,,,,,,,,,,,,,,,,,,,,,,,,,,,,,,,,,,,,,,,,,,,,,,,,,,,,,,,,,,,,,,,,,,,,,,,,,,,,
,,,,,,,,,,,,,,5ed4f048f7b6fe02e0d9ffe3,20,2021-03-24_22h54.59.559,CombinedMST_OA,2020.2.10,Win32,60,,,,,,,,,,,,,,,,,SoundMST/Helicopter_A.wav,2,3,NEW,C,,,2,1,0.404,0,40,40,40,1,,,,,,,,,,,,,,,,,,,,,,,,,,,,,,,,,,,,,,,,,,,,,,,,,,,,,,,,,,,,,,,,,,,,,,,,,,,,,,,,,
,,,,,,,,,,,,,,5ed4f048f7b6fe02e0d9ffe3,20,2021-03-24_22h54.59.559,CombinedMST_OA,2020.2.10,Win32,60,,,,,,,,,,,,,,,,,SoundMST/Goat_C.wav,2,2,SIMILAR,C,,,2,1,0.835,0,41,41,41,1,,,,,,,,,,,,,,,,,,,,,,,,,,,,,,,,,,,,,,,,,,,,,,,,,,,,,,,,,,,,,,,,,,,,,,,,,,,,,,,,,
,,,,,,,,,,,,,,5ed4f048f7b6fe02e0d9ffe3,20,2021-03-24_22h54.59.559,CombinedMST_OA,2020.2.10,Win32,60,,,,,,,,,,,,,,,,,SoundMST/HairDryer_A.wav,2,3,NEW,C,,,2,1,0.459,0,42,42,42,1,,,,,,,,,,,,,,,,,,,,,,,,,,,,,,,,,,,,,,,,,,,,,,,,,,,,,,,,,,,,,,,,,,,,,,,,,,,,,,,,,
,,,,,,,,,,,,,,5ed4f048f7b6fe02e0d9ffe3,20,2021-03-24_22h54.59.559,CombinedMST_OA,2020.2.10,Win32,60,,,,,,,,,,,,,,,,,SoundMST/Duck_B.wav,2,2,SIMILAR,C,,,2,1,0.423,0,43,43,43,1,,,,,,,,,,,,,,,,,,,,,,,,,,,,,,,,,,,,,,,,,,,,,,,,,,,,,,,,,,,,,,,,,,,,,,,,,,,,,,,,,
,,,,,,,,,,,,,,5ed4f048f7b6fe02e0d9ffe3,20,2021-03-24_22h54.59.559,CombinedMST_OA,2020.2.10,Win32,60,,,,,,,,,,,,,,,,,SoundMST/PaperRip.wav,1,1,OLD,C,,,2,0,0.769,0,44,44,44,1,,,,,,,,,,,,,,,,,,,,,,,,,,,,,,,,,,,,,,,,,,,,,,,,,,,,,,,,,,,,,,,,,,,,,,,,,,,,,,,,,
,,,,,,,,,,,,,,5ed4f048f7b6fe02e0d9ffe3,20,2021-03-24_22h54.59.559,CombinedMST_OA,2020.2.10,Win32,60,,,,,,,,,,,,,,,,,SoundMST/Dog_H.wav,2,3,NEW,C,,,2,1,0.573,0,45,45,45,1,,,,,,,,,,,,,,,,,,,,,,,,,,,,,,,,,,,,,,,,,,,,,,,,,,,,,,,,,,,,,,,,,,,,,,,,,,,,,,,,,
,,,,,,,,,,,,,,5ed4f048f7b6fe02e0d9ffe3,20,2021-03-24_22h54.59.559,CombinedMST_OA,2020.2.10,Win32,60,,,,,,,,,,,,,,,,,SoundMST/Camera.wav,1,1,OLD,C,,,2,0,0.568,0,46,46,46,1,,,,,,,,,,,,,,,,,,,,,,,,,,,,,,,,,,,,,,,,,,,,,,,,,,,,,,,,,,,,,,,,,,,,,,,,,,,,,,,,,
,,,,,,,,,,,,,,5ed4f048f7b6fe02e0d9ffe3,20,2021-03-24_22h54.59.559,CombinedMST_OA,2020.2.10,Win32,60,,,,,,,,,,,,,,,,,SoundMST/Laugh_D.wav,2,2,SIMILAR,C,,,2,1,0.555,0,47,47,47,1,,,,,,,,,,,,,,,,,,,,,,,,,,,,,,,,,,,,,,,,,,,,,,,,,,,,,,,,,,,,,,,,,,,,,,,,,,,,,,,,,
,,,,,,,,,,,,,,5ed4f048f7b6fe02e0d9ffe3,20,2021-03-24_22h54.59.559,CombinedMST_OA,2020.2.10,Win32,60,,,,,,,,,,,,,,,,,SoundMST/Sneeze_B.wav,2,3,NEW,C,,,2,1,1.054,0,48,48,48,1,,,,,,,,,,,,,,,,,,,,,,,,,,,,,,,,,,,,,,,,,,,,,,,,,,,,,,,,,,,,,,,,,,,,,,,,,,,,,,,,,
,,,,,,,,,,,,,,5ed4f048f7b6fe02e0d9ffe3,20,2021-03-24_22h54.59.559,CombinedMST_OA,2020.2.10,Win32,60,,,,,,,,,,,,,,,,,SoundMST/Cow.wav,1,1,OLD,C,,,2,0,1.108,0,49,49,49,1,,,,,,,,,,,,,,,,,,,,,,,,,,,,,,,,,,,,,,,,,,,,,,,,,,,,,,,,,,,,,,,,,,,,,,,,,,,,,,,,,
,,,,,,,,,,,,,,5ed4f048f7b6fe02e0d9ffe3,20,2021-03-24_22h54.59.559,CombinedMST_OA,2020.2.10,Win32,60,,,,,,,,,,,,,,,,,SoundMST/Donkey.wav,2,3,NEW,C,,,2,1,0.758,0,50,50,50,1,,,,,,,,,,,,,,,,,,,,,,,,,,,,,,,,,,,,,,,,,,,,,,,,,,,,,,,,,,,,,,,,,,,,,,,,,,,,,,,,,
,,,,,,,,,,,,,,5ed4f048f7b6fe02e0d9ffe3,20,2021-03-24_22h54.59.559,CombinedMST_OA,2020.2.10,Win32,60,,,,,,,,,,,,,,,,,SoundMST/Coin_E.wav,2,2,SIMILAR,C,,,1,0,1.851,0,51,51,51,1,,,,,,,,,,,,,,,,,,,,,,,,,,,,,,,,,,,,,,,,,,,,,,,,,,,,,,,,,,,,,,,,,,,,,,,,,,,,,,,,,
,,,,,,,,,,,,,,5ed4f048f7b6fe02e0d9ffe3,20,2021-03-24_22h54.59.559,CombinedMST_OA,2020.2.10,Win32,60,,,,,,,,,,,,,,,,,SoundMST/Buzz.wav,2,3,NEW,C,,,2,1,0.888,0,52,52,52,1,,,,,,,,,,,,,,,,,,,,,,,,,,,,,,,,,,,,,,,,,,,,,,,,,,,,,,,,,,,,,,,,,,,,,,,,,,,,,,,,,
,,,,,,,,,,,,,,5ed4f048f7b6fe02e0d9ffe3,20,2021-03-24_22h54.59.559,CombinedMST_OA,2020.2.10,Win32,60,,,,,,,,,,,,,,,,,SoundMST/Piano_D.wav,1,1,OLD,C,,,2,0,0.736,0,53,53,53,1,,,,,,,,,,,,,,,,,,,,,,,,,,,,,,,,,,,,,,,,,,,,,,,,,,,,,,,,,,,,,,,,,,,,,,,,,,,,,,,,,
,,,,,,,,,,,,,,5ed4f048f7b6fe02e0d9ffe3,20,2021-03-24_22h54.59.559,CombinedMST_OA,2020.2.10,Win32,60,,,,,,,,,,,,,,,,,SoundMST/Hammer_A.wav,2,3,NEW,C,,,2,1,0.769,0,54,54,54,1,,,,,,,,,,,,,,,,,,,,,,,,,,,,,,,,,,,,,,,,,,,,,,,,,,,,,,,,,,,,,,,,,,,,,,,,,,,,,,,,,
,,,,,,,,,,,,,,5ed4f048f7b6fe02e0d9ffe3,20,2021-03-24_22h54.59.559,CombinedMST_OA,2020.2.10,Win32,60,,,,,,,,,,,,,,,,,SoundMST/Airhorn.wav,1,1,OLD,C,,,1,1,0.492,0,55,55,55,1,,,,,,,,,,,,,,,,,,,,,,,,,,,,,,,,,,,,,,,,,,,,,,,,,,,,,,,,,,,,,,,,,,,,,,,,,,,,,,,,,
,,,,,,,,,,,,,,5ed4f048f7b6fe02e0d9ffe3,20,2021-03-24_22h54.59.559,CombinedMST_OA,2020.2.10,Win32,60,,,,,,,,,,,,,,,,,SoundMST/Whistle_C.wav,2,2,SIMILAR,C,,,2,1,0.453,0,56,56,56,1,,,,,,,,,,,,,,,,,,,,,,,,,,,,,,,,,,,,,,,,,,,,,,,,,,,,,,,,,,,,,,,,,,,,,,,,,,,,,,,,,
,,,,,,,,,,,,,,5ed4f048f7b6fe02e0d9ffe3,20,2021-03-24_22h54.59.559,CombinedMST_OA,2020.2.10,Win32,60,,,,,,,,,,,,,,,,,SoundMST/Faucet_A.wav,2,3,NEW,C,,,2,1,0.422,0,57,57,57,1,,,,,,,,,,,,,,,,,,,,,,,,,,,,,,,,,,,,,,,,,,,,,,,,,,,,,,,,,,,,,,,,,,,,,,,,,,,,,,,,,
,,,,,,,,,,,,,,5ed4f048f7b6fe02e0d9ffe3,20,2021-03-24_22h54.59.559,CombinedMST_OA,2020.2.10,Win32,60,,,,,,,,,,,,,,,,,SoundMST/Pour_C.wav,2,2,SIMILAR,C,,,2,1,0.42,0,58,58,58,1,,,,,,,,,,,,,,,,,,,,,,,,,,,,,,,,,,,,,,,,,,,,,,,,,,,,,,,,,,,,,,,,,,,,,,,,,,,,,,,,,
,,,,,,,,,,,,,,5ed4f048f7b6fe02e0d9ffe3,20,2021-03-24_22h54.59.559,CombinedMST_OA,2020.2.10,Win32,60,,,,,,,,,,,,,,,,,SoundMST/Crow_B.wav,2,3,NEW,C,,,2,1,0.32,0,59,59,59,1,,,,,,,,,,,,,,,,,,,,,,,,,,,,,,,,,,,,,,,,,,,,,,,,,,,,,,,,,,,,,,,,,,,,,,,,,,,,,,,,,
,,,,,,,,,,,,,,5ed4f048f7b6fe02e0d9ffe3,20,2021-03-24_22h54.59.559,CombinedMST_OA,2020.2.10,Win32,60,,,,,,,,,,,,,,,,,SoundMST/Trumpet_B.wav,2,3,NEW,C,,,2,1,0.418,0,60,60,60,1,,,,,,,,,,,,,,,,,,,,,,,,,,,,,,,,,,,,,,,,,,,,,,,,,,,,,,,,,,,,,,,,,,,,,,,,,,,,,,,,,
,,,,,,,,,,,,,,5ed4f048f7b6fe02e0d9ffe3,20,2021-03-24_22h54.59.559,CombinedMST_OA,2020.2.10,Win32,60,,,,,,,,,,,,,,,,,SoundMST/Bullfrog.wav,1,1,OLD,C,,,2,0,3.452,0,61,61,61,1,,,,,,,,,,,,,,,,,,,,,,,,,,,,,,,,,,,,,,,,,,,,,,,,,,,,,,,,,,,,,,,,,,,,,,,,,,,,,,,,,
,,,,,,,,,,,,,,5ed4f048f7b6fe02e0d9ffe3,20,2021-03-24_22h54.59.559,CombinedMST_OA,2020.2.10,Win32,60,,,,,,,,,,,,,,,,,SoundMST/Helicopter_A.wav,1,1,OLD,C,,,2,0,0.46,0,62,62,62,1,,,,,,,,,,,,,,,,,,,,,,,,,,,,,,,,,,,,,,,,,,,,,,,,,,,,,,,,,,,,,,,,,,,,,,,,,,,,,,,,,
,,,,,,,,,,,,,,5ed4f048f7b6fe02e0d9ffe3,20,2021-03-24_22h54.59.559,CombinedMST_OA,2020.2.10,Win32,60,,,,,,,,,,,,,,,,,SoundMST/Elephant_C.wav,2,3,NEW,C,,,2,1,0.523,0,63,63,63,1,,,,,,,,,,,,,,,,,,,,,,,,,,,,,,,,,,,,,,,,,,,,,,,,,,,,,,,,,,,,,,,,,,,,,,,,,,,,,,,,,
,,,,,,,,,,,,,,5ed4f048f7b6fe02e0d9ffe3,20,2021-03-24_22h54.59.559,CombinedMST_OA,2020.2.10,Win32,60,,,,,,,,,,,,,,,,,SoundMST/Sneeze_B.wav,1,1,OLD,C,,,2,0,0.47,0,64,64,64,1,,,,,,,,,,,,,,,,,,,,,,,,,,,,,,,,,,,,,,,,,,,,,,,,,,,,,,,,,,,,,,,,,,,,,,,,,,,,,,,,,
,,,,,,,,,,,,,,5ed4f048f7b6fe02e0d9ffe3,20,2021-03-24_22h54.59.559,CombinedMST_OA,2020.2.10,Win32,60,,,,,,,,,,,,,,,,,SoundMST/Chime_B.wav,2,3,NEW,C,,,2,1,0.471,0,65,65,65,1,,,,,,,,,,,,,,,,,,,,,,,,,,,,,,,,,,,,,,,,,,,,,,,,,,,,,,,,,,,,,,,,,,,,,,,,,,,,,,,,,
,,,,,,,,,,,,,,5ed4f048f7b6fe02e0d9ffe3,20,2021-03-24_22h54.59.559,CombinedMST_OA,2020.2.10,Win32,60,,,,,,,,,,,,,,,,,SoundMST/Phone_D.wav,2,3,NEW,C,,,2,1,0.488,0,66,66,66,1,,,,,,,,,,,,,,,,,,,,,,,,,,,,,,,,,,,,,,,,,,,,,,,,,,,,,,,,,,,,,,,,,,,,,,,,,,,,,,,,,
,,,,,,,,,,,,,,5ed4f048f7b6fe02e0d9ffe3,20,2021-03-24_22h54.59.559,CombinedMST_OA,2020.2.10,Win32,60,,,,,,,,,,,,,,,,,SoundMST/HairDryer_A.wav,1,1,OLD,C,,,2,0,0.507,0,67,67,67,1,,,,,,,,,,,,,,,,,,,,,,,,,,,,,,,,,,,,,,,,,,,,,,,,,,,,,,,,,,,,,,,,,,,,,,,,,,,,,,,,,
,,,,,,,,,,,,,,5ed4f048f7b6fe02e0d9ffe3,20,2021-03-24_22h54.59.559,CombinedMST_OA,2020.2.10,Win32,60,,,,,,,,,,,,,,,,,SoundMST/Puff_A.wav,2,3,NEW,C,,,2,1,0.669,0,68,68,68,1,,,,,,,,,,,,,,,,,,,,,,,,,,,,,,,,,,,,,,,,,,,,,,,,,,,,,,,,,,,,,,,,,,,,,,,,,,,,,,,,,
,,,,,,,,,,,,,,5ed4f048f7b6fe02e0d9ffe3,20,2021-03-24_22h54.59.559,CombinedMST_OA,2020.2.10,Win32,60,,,,,,,,,,,,,,,,,SoundMST/Dog_F.wav,2,2,SIMILAR,C,,,2,1,0.436,0,69,69,69,1,,,,,,,,,,,,,,,,,,,,,,,,,,,,,,,,,,,,,,,,,,,,,,,,,,,,,,,,,,,,,,,,,,,,,,,,,,,,,,,,,
,,,,,,,,,,,,,,5ed4f048f7b6fe02e0d9ffe3,20,2021-03-24_22h54.59.559,CombinedMST_OA,2020.2.10,Win32,60,,,,,,,,,,,,,,,,,SoundMST/Donkey.wav,1,1,OLD,C,,,1,1,0.626,0,70,70,70,1,,,,,,,,,,,,,,,,,,,,,,,,,,,,,,,,,,,,,,,,,,,,,,,,,,,,,,,,,,,,,,,,,,,,,,,,,,,,,,,,,
,,,,,,,,,,,,,,5ed4f048f7b6fe02e0d9ffe3,20,2021-03-24_22h54.59.559,CombinedMST_OA,2020.2.10,Win32,60,,,,,,,,,,,,,,,,,SoundMST/Toilet_B.wav,2,3,NEW,C,,,1,0,0.59,0,71,71,71,1,,,,,,,,,,,,,,,,,,,,,,,,,,,,,,,,,,,,,,,,,,,,,,,,,,,,,,,,,,,,,,,,,,,,,,,,,,,,,,,,,
,,,,,,,,,,,,,,5ed4f048f7b6fe02e0d9ffe3,20,2021-03-24_22h54.59.559,CombinedMST_OA,2020.2.10,Win32,60,,,,,,,,,,,,,,,,,SoundMST/Writing_A.wav,2,3,NEW,C,,,2,1,0.734,0,72,72,72,1,,,,,,,,,,,,,,,,,,,,,,,,,,,,,,,,,,,,,,,,,,,,,,,,,,,,,,,,,,,,,,,,,,,,,,,,,,,,,,,,,
,,,,,,,,,,,,,,5ed4f048f7b6fe02e0d9ffe3,20,2021-03-24_22h54.59.559,CombinedMST_OA,2020.2.10,Win32,60,,,,,,,,,,,,,,,,,SoundMST/Cello.wav,2,3,NEW,C,,,2,1,0.587,0,73,73,73,1,,,,,,,,,,,,,,,,,,,,,,,,,,,,,,,,,,,,,,,,,,,,,,,,,,,,,,,,,,,,,,,,,,,,,,,,,,,,,,,,,
,,,,,,,,,,,,,,5ed4f048f7b6fe02e0d9ffe3,20,2021-03-24_22h54.59.559,CombinedMST_OA,2020.2.10,Win32,60,,,,,,,,,,,,,,,,,SoundMST/Crow_A.wav,2,2,SIMILAR,C,,,2,1,1.618,0,74,74,74,1,,,,,,,,,,,,,,,,,,,,,,,,,,,,,,,,,,,,,,,,,,,,,,,,,,,,,,,,,,,,,,,,,,,,,,,,,,,,,,,,,
,,,,,,,,,,,,,,5ed4f048f7b6fe02e0d9ffe3,20,2021-03-24_22h54.59.559,CombinedMST_OA,2020.2.10,Win32,60,,,,,,,,,,,,,,,,,SoundMST/Hammer_A.wav,1,1,OLD,C,,,2,0,0.508,0,75,75,75,1,,,,,,,,,,,,,,,,,,,,,,,,,,,,,,,,,,,,,,,,,,,,,,,,,,,,,,,,,,,,,,,,,,,,,,,,,,,,,,,,,
,,,,,,,,,,,,,,5ed4f048f7b6fe02e0d9ffe3,20,2021-03-24_22h54.59.559,CombinedMST_OA,2020.2.10,Win32,60,,,,,,,,,,,,,,,,,SoundMST/Cuckoo_A.wav,2,3,NEW,C,,,2,1,0.552,0,76,76,76,1,,,,,,,,,,,,,,,,,,,,,,,,,,,,,,,,,,,,,,,,,,,,,,,,,,,,,,,,,,,,,,,,,,,,,,,,,,,,,,,,,
,,,,,,,,,,,,,,5ed4f048f7b6fe02e0d9ffe3,20,2021-03-24_22h54.59.559,CombinedMST_OA,2020.2.10,Win32,60,,,,,,,,,,,,,,,,,SoundMST/Buzz.wav,1,1,OLD,C,,,1,1,0.759,0,77,77,77,1,,,,,,,,,,,,,,,,,,,,,,,,,,,,,,,,,,,,,,,,,,,,,,,,,,,,,,,,,,,,,,,,,,,,,,,,,,,,,,,,,
,,,,,,,,,,,,,,5ed4f048f7b6fe02e0d9ffe3,20,2021-03-24_22h54.59.559,CombinedMST_OA,2020.2.10,Win32,60,,,,,,,,,,,,,,,,,SoundMST/Siren_E.wav,2,3,NEW,C,,,2,1,0.66,0,78,78,78,1,,,,,,,,,,,,,,,,,,,,,,,,,,,,,,,,,,,,,,,,,,,,,,,,,,,,,,,,,,,,,,,,,,,,,,,,,,,,,,,,,
,,,,,,,,,,,,,,5ed4f048f7b6fe02e0d9ffe3,20,2021-03-24_22h54.59.559,CombinedMST_OA,2020.2.10,Win32,60,,,,,,,,,,,,,,,,,SoundMST/Trumpet_B.wav,1,1,OLD,C,,,2,0,1.659,0,79,79,79,1,,,,,,,,,,,,,,,,,,,,,,,,,,,,,,,,,,,,,,,,,,,,,,,,,,,,,,,,,,,,,,,,,,,,,,,,,,,,,,,,,
,,,,,,,,,,,,,,5ed4f048f7b6fe02e0d9ffe3,20,2021-03-24_22h54.59.559,CombinedMST_OA,2020.2.10,Win32,60,,,,,,,,,,,,,,,,,SoundMST/Wind_B.wav,2,3,NEW,C,,,2,1,0.369,0,80,80,80,1,,,,,,,,,,,,,,,,,,,,,,,,,,,,,,,,,,,,,,,,,,,,,,,,,,,,,,,,,,,,,,,,,,,,,,,,,,,,,,,,,
,,,,,,,,,,,,,,5ed4f048f7b6fe02e0d9ffe3,20,2021-03-24_22h54.59.559,CombinedMST_OA,2020.2.10,Win32,60,,,,,,,,,,,,,,,,,SoundMST/Cat_A.wav,2,3,NEW,C,,,2,1,0.39,0,81,81,81,1,,,,,,,,,,,,,,,,,,,,,,,,,,,,,,,,,,,,,,,,,,,,,,,,,,,,,,,,,,,,,,,,,,,,,,,,,,,,,,,,,
,,,,,,,,,,,,,,5ed4f048f7b6fe02e0d9ffe3,20,2021-03-24_22h54.59.559,CombinedMST_OA,2020.2.10,Win32,60,,,,,,,,,,,,,,,,,SoundMST/Phone_E.wav,2,2,SIMILAR,C,,,1,0,1.077,0,82,82,82,1,,,,,,,,,,,,,,,,,,,,,,,,,,,,,,,,,,,,,,,,,,,,,,,,,,,,,,,,,,,,,,,,,,,,,,,,,,,,,,,,,
,,,,,,,,,,,,,,5ed4f048f7b6fe02e0d9ffe3,20,2021-03-24_22h54.59.559,CombinedMST_OA,2020.2.10,Win32,60,,,,,,,,,,,,,,,,,SoundMST/Chomp_A.wav,2,3,NEW,C,,,2,1,0.435,0,83,83,83,1,,,,,,,,,,,,,,,,,,,,,,,,,,,,,,,,,,,,,,,,,,,,,,,,,,,,,,,,,,,,,,,,,,,,,,,,,,,,,,,,,
,,,,,,,,,,,,,,5ed4f048f7b6fe02e0d9ffe3,20,2021-03-24_22h54.59.559,CombinedMST_OA,2020.2.10,Win32,60,,,,,,,,,,,,,,,,,SoundMST/Elephant_A.wav,2,2,SIMILAR,C,,,2,1,0.453,0,84,84,84,1,,,,,,,,,,,,,,,,,,,,,,,,,,,,,,,,,,,,,,,,,,,,,,,,,,,,,,,,,,,,,,,,,,,,,,,,,,,,,,,,,
,,,,,,,,,,,,,,5ed4f048f7b6fe02e0d9ffe3,20,2021-03-24_22h54.59.559,CombinedMST_OA,2020.2.10,Win32,60,,,,,,,,,,,,,,,,,SoundMST/Cup.wav,2,3,NEW,C,,,2,1,0.688,0,85,85,85,1,,,,,,,,,,,,,,,,,,,,,,,,,,,,,,,,,,,,,,,,,,,,,,,,,,,,,,,,,,,,,,,,,,,,,,,,,,,,,,,,,
,,,,,,,,,,,,,,5ed4f048f7b6fe02e0d9ffe3,20,2021-03-24_22h54.59.559,CombinedMST_OA,2020.2.10,Win32,60,,,,,,,,,,,,,,,,,SoundMST/Chime_A.wav,2,2,SIMILAR,C,,,2,1,3.567,0,86,86,86,1,,,,,,,,,,,,,,,,,,,,,,,,,,,,,,,,,,,,,,,,,,,,,,,,,,,,,,,,,,,,,,,,,,,,,,,,,,,,,,,,,
,,,,,,,,,,,,,,5ed4f048f7b6fe02e0d9ffe3,20,2021-03-24_22h54.59.559,CombinedMST_OA,2020.2.10,Win32,60,,,,,,,,,,,,,,,,,SoundMST/Droplet_B.wav,2,3,NEW,C,,,2,1,0.72,0,87,87,87,1,,,,,,,,,,,,,,,,,,,,,,,,,,,,,,,,,,,,,,,,,,,,,,,,,,,,,,,,,,,,,,,,,,,,,,,,,,,,,,,,,
,,,,,,,,,,,,,,5ed4f048f7b6fe02e0d9ffe3,20,2021-03-24_22h54.59.559,CombinedMST_OA,2020.2.10,Win32,60,,,,,,,,,,,,,,,,,SoundMST/Faucet_C.wav,2,2,SIMILAR,C,,,2,1,0.419,0,88,88,88,1,,,,,,,,,,,,,,,,,,,,,,,,,,,,,,,,,,,,,,,,,,,,,,,,,,,,,,,,,,,,,,,,,,,,,,,,,,,,,,,,,
,,,,,,,,,,,,,,5ed4f048f7b6fe02e0d9ffe3,20,2021-03-24_22h54.59.559,CombinedMST_OA,2020.2.10,Win32,60,,,,,,,,,,,,,,,,,SoundMST/Puff_A.wav,1,1,OLD,C,,,2,0,0.819,0,89,89,89,1,,,,,,,,,,,,,,,,,,,,,,,,,,,,,,,,,,,,,,,,,,,,,,,,,,,,,,,,,,,,,,,,,,,,,,,,,,,,,,,,,
,,,,,,,,,,,,,,5ed4f048f7b6fe02e0d9ffe3,20,2021-03-24_22h54.59.559,CombinedMST_OA,2020.2.10,Win32,60,,,,,,,,,,,,,,,,,SoundMST/Clap_B.wav,2,3,NEW,C,,,2,1,0.41,0,90,90,90,1,,,,,,,,,,,,,,,,,,,,,,,,,,,,,,,,,,,,,,,,,,,,,,,,,,,,,,,,,,,,,,,,,,,,,,,,,,,,,,,,,
,,,,,,,,,,,,,,5ed4f048f7b6fe02e0d9ffe3,20,2021-03-24_22h54.59.559,CombinedMST_OA,2020.2.10,Win32,60,,,,,,,,,,,,,,,,,SoundMST/Cello.wav,1,1,OLD,C,,,1,1,0.568,0,91,91,91,1,,,,,,,,,,,,,,,,,,,,,,,,,,,,,,,,,,,,,,,,,,,,,,,,,,,,,,,,,,,,,,,,,,,,,,,,,,,,,,,,,
,,,,,,,,,,,,,,5ed4f048f7b6fe02e0d9ffe3,20,2021-03-24_22h54.59.559,CombinedMST_OA,2020.2.10,Win32,60,,,,,,,,,,,,,,,,,SoundMST/Mosquito_B.wav,2,3,NEW,C,,,2,1,0.704,0,92,92,92,1,,,,,,,,,,,,,,,,,,,,,,,,,,,,,,,,,,,,,,,,,,,,,,,,,,,,,,,,,,,,,,,,,,,,,,,,,,,,,,,,,
,,,,,,,,,,,,,,5ed4f048f7b6fe02e0d9ffe3,20,2021-03-24_22h54.59.559,CombinedMST_OA,2020.2.10,Win32,60,,,,,,,,,,,,,,,,,SoundMST/Writing_C.wav,2,2,SIMILAR,C,,,2,1,0.636,0,93,93,93,1,,,,,,,,,,,,,,,,,,,,,,,,,,,,,,,,,,,,,,,,,,,,,,,,,,,,,,,,,,,,,,,,,,,,,,,,,,,,,,,,,
,,,,,,,,,,,,,,5ed4f048f7b6fe02e0d9ffe3,20,2021-03-24_22h54.59.559,CombinedMST_OA,2020.2.10,Win32,60,,,,,,,,,,,,,,,,,SoundMST/Guitar_B.wav,2,3,NEW,C,,,2,1,0.736,0,94,94,94,1,,,,,,,,,,,,,,,,,,,,,,,,,,,,,,,,,,,,,,,,,,,,,,,,,,,,,,,,,,,,,,,,,,,,,,,,,,,,,,,,,
,,,,,,,,,,,,,,5ed4f048f7b6fe02e0d9ffe3,20,2021-03-24_22h54.59.559,CombinedMST_OA,2020.2.10,Win32,60,,,,,,,,,,,,,,,,,SoundMST/Toilet_B.wav,1,1,OLD,C,,,1,1,0.436,0,95,95,95,1,,,,,,,,,,,,,,,,,,,,,,,,,,,,,,,,,,,,,,,,,,,,,,,,,,,,,,,,,,,,,,,,,,,,,,,,,,,,,,,,,
,,,,,,,,,,,,,,5ed4f048f7b6fe02e0d9ffe3,20,2021-03-24_22h54.59.559,CombinedMST_OA,2020.2.10,Win32,60,,,,,,,,,,,,,,,,,SoundMST/Bagpipe.wav,2,3,NEW,C,,,2,1,0.47,0,96,96,96,1,,,,,,,,,,,,,,,,,,,,,,,,,,,,,,,,,,,,,,,,,,,,,,,,,,,,,,,,,,,,,,,,,,,,,,,,,,,,,,,,,
,,,,,,,,,,,,,,5ed4f048f7b6fe02e0d9ffe3,20,2021-03-24_22h54.59.559,CombinedMST_OA,2020.2.10,Win32,60,,,,,,,,,,,,,,,,,SoundMST/Cuckoo_A.wav,1,1,OLD,C,,,2,0,1.155,0,97,97,97,1,,,,,,,,,,,,,,,,,,,,,,,,,,,,,,,,,,,,,,,,,,,,,,,,,,,,,,,,,,,,,,,,,,,,,,,,,,,,,,,,,
,,,,,,,,,,,,,,5ed4f048f7b6fe02e0d9ffe3,20,2021-03-24_22h54.59.559,CombinedMST_OA,2020.2.10,Win32,60,,,,,,,,,,,,,,,,,SoundMST/Wind_B.wav,1,1,OLD,C,,,2,0,0.551,0,98,98,98,1,,,,,,,,,,,,,,,,,,,,,,,,,,,,,,,,,,,,,,,,,,,,,,,,,,,,,,,,,,,,,,,,,,,,,,,,,,,,,,,,,
,,,,,,,,,,,,,,5ed4f048f7b6fe02e0d9ffe3,20,2021-03-24_22h54.59.559,CombinedMST_OA,2020.2.10,Win32,60,,,,,,,,,,,,,,,,,SoundMST/Cough_C.wav,2,3,NEW,C,,,2,1,0.636,0,99,99,99,1,,,,,,,,,,,,,,,,,,,,,,,,,,,,,,,,,,,,,,,,,,,,,,,,,,,,,,,,,,,,,,,,,,,,,,,,,,,,,,,,,
,,,,,,,,,,,,,,5ed4f048f7b6fe02e0d9ffe3,20,2021-03-24_22h54.59.559,CombinedMST_OA,2020.2.10,Win32,60,,,,,,,,,,,,,,,,,SoundMST/ManWhistle.wav,2,3,NEW,C,,,2,1,0.585,0,100,100,100,1,,,,,,,,,,,,,,,,,,,,,,,,,,,,,,,,,,,,,,,,,,,,,,,,,,,,,,,,,,,,,,,,,,,,,,,,,,,,,,,,,
,,,,,,,,,,,,,,5ed4f048f7b6fe02e0d9ffe3,20,2021-03-24_22h54.59.559,CombinedMST_OA,2020.2.10,Win32,60,,,,,,,,,,,,,,,,,SoundMST/Chomp_C.wav,2,2,SIMILAR,C,,,2,1,0.701,0,101,101,101,1,,,,,,,,,,,,,,,,,,,,,,,,,,,,,,,,,,,,,,,,,,,,,,,,,,,,,,,,,,,,,,,,,,,,,,,,,,,,,,,,,
,,,,,,,,,,,,,,5ed4f048f7b6fe02e0d9ffe3,20,2021-03-24_22h54.59.559,CombinedMST_OA,2020.2.10,Win32,60,,,,,,,,,,,,,,,,,SoundMST/Siren_A.wav,2,2,SIMILAR,C,,,2,1,0.69,0,102,102,102,1,,,,,,,,,,,,,,,,,,,,,,,,,,,,,,,,,,,,,,,,,,,,,,,,,,,,,,,,,,,,,,,,,,,,,,,,,,,,,,,,,
,,,,,,,,,,,,,,5ed4f048f7b6fe02e0d9ffe3,20,2021-03-24_22h54.59.559,CombinedMST_OA,2020.2.10,Win32,60,,,,,,,,,,,,,,,,,SoundMST/Thunder_A.wav,2,3,NEW,C,,,2,1,0.709,0,103,103,103,1,,,,,,,,,,,,,,,,,,,,,,,,,,,,,,,,,,,,,,,,,,,,,,,,,,,,,,,,,,,,,,,,,,,,,,,,,,,,,,,,,
,,,,,,,,,,,,,,5ed4f048f7b6fe02e0d9ffe3,20,2021-03-24_22h54.59.559,CombinedMST_OA,2020.2.10,Win32,60,,,,,,,,,,,,,,,,,SoundMST/Cat_A.wav,1,1,OLD,C,,,1,1,0.627,0,104,104,104,1,,,,,,,,,,,,,,,,,,,,,,,,,,,,,,,,,,,,,,,,,,,,,,,,,,,,,,,,,,,,,,,,,,,,,,,,,,,,,,,,,
,,,,,,,,,,,,,,5ed4f048f7b6fe02e0d9ffe3,20,2021-03-24_22h54.59.559,CombinedMST_OA,2020.2.10,Win32,60,,,,,,,,,,,,,,,,,SoundMST/Snore_C.wav,2,3,NEW,C,,,2,1,0.656,0,105,105,105,1,,,,,,,,,,,,,,,,,,,,,,,,,,,,,,,,,,,,,,,,,,,,,,,,,,,,,,,,,,,,,,,,,,,,,,,,,,,,,,,,,
,,,,,,,,,,,,,,5ed4f048f7b6fe02e0d9ffe3,20,2021-03-24_22h54.59.559,CombinedMST_OA,2020.2.10,Win32,60,,,,,,,,,,,,,,,,,SoundMST/Cup.wav,1,1,OLD,C,,,1,1,2.439,0,106,106,106,1,,,,,,,,,,,,,,,,,,,,,,,,,,,,,,,,,,,,,,,,,,,,,,,,,,,,,,,,,,,,,,,,,,,,,,,,,,,,,,,,,
,,,,,,,,,,,,,,5ed4f048f7b6fe02e0d9ffe3,20,2021-03-24_22h54.59.559,CombinedMST_OA,2020.2.10,Win32,60,,,,,,,,,,,,,,,,,SoundMST/Baby_F.wav,2,3,NEW,C,,,2,1,0.434,0,107,107,107,1,,,,,,,,,,,,,,,,,,,,,,,,,,,,,,,,,,,,,,,,,,,,,,,,,,,,,,,,,,,,,,,,,,,,,,,,,,,,,,,,,
,,,,,,,,,,,,,,5ed4f048f7b6fe02e0d9ffe3,20,2021-03-24_22h54.59.559,CombinedMST_OA,2020.2.10,Win32,60,,,,,,,,,,,,,,,,,SoundMST/Droplet_B.wav,1,1,OLD,C,,,2,0,3.869,0,108,108,108,1,,,,,,,,,,,,,,,,,,,,,,,,,,,,,,,,,,,,,,,,,,,,,,,,,,,,,,,,,,,,,,,,,,,,,,,,,,,,,,,,,
,,,,,,,,,,,,,,5ed4f048f7b6fe02e0d9ffe3,20,2021-03-24_22h54.59.559,CombinedMST_OA,2020.2.10,Win32,60,,,,,,,,,,,,,,,,,SoundMST/DialTone.wav,2,3,NEW,C,,,2,1,0.791,0,109,109,109,1,,,,,,,,,,,,,,,,,,,,,,,,,,,,,,,,,,,,,,,,,,,,,,,,,,,,,,,,,,,,,,,,,,,,,,,,,,,,,,,,,
,,,,,,,,,,,,,,5ed4f048f7b6fe02e0d9ffe3,20,2021-03-24_22h54.59.559,CombinedMST_OA,2020.2.10,Win32,60,,,,,,,,,,,,,,,,,SoundMST/Clap_C.wav,2,2,SIMILAR,C,,,1,0,4.94,0,110,110,110,1,,,,,,,,,,,,,,,,,,,,,,,,,,,,,,,,,,,,,,,,,,,,,,,,,,,,,,,,,,,,,,,,,,,,,,,,,,,,,,,,,
,,,,,,,,,,,,,,5ed4f048f7b6fe02e0d9ffe3,20,2021-03-24_22h54.59.559,CombinedMST_OA,2020.2.10,Win32,60,,,,,,,,,,,,,,,,,SoundMST/Heartbeat.wav,2,3,NEW,C,,,2,1,1.184,0,111,111,111,1,,,,,,,,,,,,,,,,,,,,,,,,,,,,,,,,,,,,,,,,,,,,,,,,,,,,,,,,,,,,,,,,,,,,,,,,,,,,,,,,,
,,,,,,,,,,,,,,5ed4f048f7b6fe02e0d9ffe3,20,2021-03-24_22h54.59.559,CombinedMST_OA,2020.2.10,Win32,60,,,,,,,,,,,,,,,,,SoundMST/Guitar_B.wav,1,1,OLD,C,,,1,1,0.967,0,112,112,112,1,,,,,,,,,,,,,,,,,,,,,,,,,,,,,,,,,,,,,,,,,,,,,,,,,,,,,,,,,,,,,,,,,,,,,,,,,,,,,,,,,
,,,,,,,,,,,,,,5ed4f048f7b6fe02e0d9ffe3,20,2021-03-24_22h54.59.559,CombinedMST_OA,2020.2.10,Win32,60,,,,,,,,,,,,,,,,,SoundMST/Typing.wav,2,3,NEW,C,,,2,1,0.392,0,113,113,113,1,,,,,,,,,,,,,,,,,,,,,,,,,,,,,,,,,,,,,,,,,,,,,,,,,,,,,,,,,,,,,,,,,,,,,,,,,,,,,,,,,
,,,,,,,,,,,,,,5ed4f048f7b6fe02e0d9ffe3,20,2021-03-24_22h54.59.559,CombinedMST_OA,2020.2.10,Win32,60,,,,,,,,,,,,,,,,,SoundMST/Mosquito_B.wav,1,1,OLD,C,,,2,0,7.49,0,114,114,114,1,,,,,,,,,,,,,,,,,,,,,,,,,,,,,,,,,,,,,,,,,,,,,,,,,,,,,,,,,,,,,,,,,,,,,,,,,,,,,,,,,
,,,,,,,,,,,,,,5ed4f048f7b6fe02e0d9ffe3,20,2021-03-24_22h54.59.559,CombinedMST_OA,2020.2.10,Win32,60,,,,,,,,,,,,,,,,,SoundMST/Airplane_B.wav,2,3,NEW,C,,,2,1,0.62,0,115,115,115,1,,,,,,,,,,,,,,,,,,,,,,,,,,,,,,,,,,,,,,,,,,,,,,,,,,,,,,,,,,,,,,,,,,,,,,,,,,,,,,,,,
,,,,,,,,,,,,,,5ed4f048f7b6fe02e0d9ffe3,20,2021-03-24_22h54.59.559,CombinedMST_OA,2020.2.10,Win32,60,,,,,,,,,,,,,,,,,SoundMST/ManWhistle.wav,1,1,OLD,C,,,2,0,0.602,0,116,116,116,1,,,,,,,,,,,,,,,,,,,,,,,,,,,,,,,,,,,,,,,,,,,,,,,,,,,,,,,,,,,,,,,,,,,,,,,,,,,,,,,,,
,,,,,,,,,,,,,,5ed4f048f7b6fe02e0d9ffe3,20,2021-03-24_22h54.59.559,CombinedMST_OA,2020.2.10,Win32,60,,,,,,,,,,,,,,,,,SoundMST/Steam.wav,2,3,NEW,C,,,2,1,0.459,0,117,117,117,1,,,,,,,,,,,,,,,,,,,,,,,,,,,,,,,,,,,,,,,,,,,,,,,,,,,,,,,,,,,,,,,,,,,,,,,,,,,,,,,,,
,,,,,,,,,,,,,,5ed4f048f7b6fe02e0d9ffe3,20,2021-03-24_22h54.59.559,CombinedMST_OA,2020.2.10,Win32,60,,,,,,,,,,,,,,,,,SoundMST/Baby_E.wav,2,2,SIMILAR,C,,,1,0,4.306,0,118,118,118,1,,,,,,,,,,,,,,,,,,,,,,,,,,,,,,,,,,,,,,,,,,,,,,,,,,,,,,,,,,,,,,,,,,,,,,,,,,,,,,,,,
,,,,,,,,,,,,,,5ed4f048f7b6fe02e0d9ffe3,20,2021-03-24_22h54.59.559,CombinedMST_OA,2020.2.10,Win32,60,,,,,,,,,,,,,,,,,SoundMST/Bagpipe.wav,1,1,OLD,C,,,1,1,0.958,0,119,119,119,1,,,,,,,,,,,,,,,,,,,,,,,,,,,,,,,,,,,,,,,,,,,,,,,,,,,,,,,,,,,,,,,,,,,,,,,,,,,,,,,,,
,,,,,,,,,,,,,,5ed4f048f7b6fe02e0d9ffe3,20,2021-03-24_22h54.59.559,CombinedMST_OA,2020.2.10,Win32,60,,,,,,,,,,,,,,,,,SoundMST/Cough_E.wav,2,2,SIMILAR,C,,,2,1,2.72,0,120,120,120,1,,,,,,,,,,,,,,,,,,,,,,,,,,,,,,,,,,,,,,,,,,,,,,,,,,,,,,,,,,,,,,,,,,,,,,,,,,,,,,,,,
,,,,,,,,,,,,,,5ed4f048f7b6fe02e0d9ffe3,20,2021-03-24_22h54.59.559,CombinedMST_OA,2020.2.10,Win32,60,,,,,,,,,,,,,,,,,SoundMST/Airplane_B.wav,1,1,OLD,C,,,2,0,1.358,0,121,121,121,1,,,,,,,,,,,,,,,,,,,,,,,,,,,,,,,,,,,,,,,,,,,,,,,,,,,,,,,,,,,,,,,,,,,,,,,,,,,,,,,,,
,,,,,,,,,,,,,,5ed4f048f7b6fe02e0d9ffe3,20,2021-03-24_22h54.59.559,CombinedMST_OA,2020.2.10,Win32,60,,,,,,,,,,,,,,,,,SoundMST/DialTone.wav,1,1,OLD,C,,,2,0,1.27,0,122,122,122,1,,,,,,,,,,,,,,,,,,,,,,,,,,,,,,,,,,,,,,,,,,,,,,,,,,,,,,,,,,,,,,,,,,,,,,,,,,,,,,,,,
,,,,,,,,,,,,,,5ed4f048f7b6fe02e0d9ffe3,20,2021-03-24_22h54.59.559,CombinedMST_OA,2020.2.10,Win32,60,,,,,,,,,,,,,,,,,SoundMST/Thunder_A.wav,1,1,OLD,C,,,1,1,0.843,0,123,123,123,1,,,,,,,,,,,,,,,,,,,,,,,,,,,,,,,,,,,,,,,,,,,,,,,,,,,,,,,,,,,,,,,,,,,,,,,,,,,,,,,,,
,,,,,,,,,,,,,,5ed4f048f7b6fe02e0d9ffe3,20,2021-03-24_22h54.59.559,CombinedMST_OA,2020.2.10,Win32,60,,,,,,,,,,,,,,,,,SoundMST/Typing.wav,1,1,OLD,C,,,1,1,2.518,0,124,124,124,1,,,,,,,,,,,,,,,,,,,,,,,,,,,,,,,,,,,,,,,,,,,,,,,,,,,,,,,,,,,,,,,,,,,,,,,,,,,,,,,,,
,,,,,,,,,,,,,,5ed4f048f7b6fe02e0d9ffe3,20,2021-03-24_22h54.59.559,CombinedMST_OA,2020.2.10,Win32,60,,,,,,,,,,,,,,,,,SoundMST/Snore_E.wav,2,2,SIMILAR,C,,,2,1,4.79,0,125,125,125,1,,,,,,,,,,,,,,,,,,,,,,,,,,,,,,,,,,,,,,,,,,,,,,,,,,,,,,,,,,,,,,,,,,,,,,,,,,,,,,,,,
,,,,,,,,,,,,,,5ed4f048f7b6fe02e0d9ffe3,20,2021-03-24_22h54.59.559,CombinedMST_OA,2020.2.10,Win32,60,,,,,,,,,,,,,,,,,SoundMST/Heartbeat.wav,1,1,OLD,C,,,1,1,3.851,0,126,126,126,1,,,,,,,,,,,,,,,,,,,,,,,,,,,,,,,,,,,,,,,,,,,,,,,,,,,,,,,,,,,,,,,,,,,,,,,,,,,,,,,,,
,,,,,,,,,,,,,,5ed4f048f7b6fe02e0d9ffe3,20,2021-03-24_22h54.59.559,CombinedMST_OA,2020.2.10,Win32,60,,,,,,,,,,,,,,,,,SoundMST/Steam.wav,1,1,OLD,C,,,1,1,0.573,0,127,127,127,1,,,,,,,,,,,,,,,,,,,,,,,,,,,,,,,,,,,,,,,,,,,,,,,,,,,,,,,,,,,,,,,,,,,,,,,,,,,,,,,,,
,,,,,,,,,,,,,,5ed4f048f7b6fe02e0d9ffe3,20,2021-03-24_22h54.59.559,CombinedMST_OA,2020.2.10,Win32,60,,,,,,,,,,,,,,,,,,,,,,,,,,,,,,,,return,11.686,pizza,0,0,0,0,1,,,,,,,,,,,,,,,,,,,,,,,,,,,,,,,,,,,,,,,,,,,,,,,,,,,,,,,,,,,,,,,,,,,,,,,,,
,,,,,,,,,,,,,,5ed4f048f7b6fe02e0d9ffe3,20,2021-03-24_22h54.59.559,CombinedMST_OA,2020.2.10,Win32,60,,,,,,,,,,,,,,,,,,,,,,,,,,,,,,,,,,,,,,,,0,0,0,1,1,0,1,,,,,,,,,,,,,,,,,,,,,,,,,,,,,,,,,,,,,,,,,,,,,,,,,,,,,,,,,,,,,,,,,,
,,,,,,,,,,,,,2,5ed4f048f7b6fe02e0d9ffe3,20,2021-03-24_22h54.59.559,CombinedMST_OA,2020.2.10,Win32,60,space,8.774,,,,,space,5.352,,,,,,,,,,,,,,,,,,,,,,,,,,,,,,,,,,,,,,,space,29.197,space,9.528,2,1,2.822,0,0,0,0,1,Training/FO_YI_LAY.wav,NEW,,,,,,,,,,,,,,,,,,,,,,,,,,,,,,,,,,,,,,,,,,,,,,,,,,,,
,,,,,,,,,,,,,1,5ed4f048f7b6fe02e0d9ffe3,20,2021-03-24_22h54.59.559,CombinedMST_OA,2020.2.10,Win32,60,,,,,,,,,,,,,,,,,,,,,,,,,,,,,,,,,,,,,,,,,,,,,,,,,,,1,1,1.594,0,1,1,1,1,Training/FO_YI_LAY.wav,OLD,,,,,,,,,,,,,,,,,,,,,,,,,,,,,,,,,,,,,,,,,,,,,,,,,,,,
,,,,,,,,,,,,,2,5ed4f048f7b6fe02e0d9ffe3,20,2021-03-24_22h54.59.559,CombinedMST_OA,2020.2.10,Win32,60,,,,,,,,,,,,,,,,,,,,,,,,,,,,,,,,,,,,,,,,,,,,,,,,,,,2,1,0.739,0,2,2,2,1,Training/YO_BU_JAY.wav,NEW,,,,,,,,,,,,,,,,,,,,,,,,,,,,,,,,,,,,,,,,,,,,,,,,,,,,
,,,,,,,,,,,,,2,5ed4f048f7b6fe02e0d9ffe3,20,2021-03-24_22h54.59.559,CombinedMST_OA,2020.2.10,Win32,60,,,,,,,,,,,,,,,,,,,,,,,,,,,,,,,,,,,,,,,,,,,,,,,,,,,2,1,1.19,0,3,3,3,1,Training/JAY_YO_BU.wav,SIMILAR,,,,,,,,,,,,,,,,,,,,,,,,,,,,,,,,,,,,,,,,,,,,,,,,,,,,
,,,,,,,,,,,,,1,5ed4f048f7b6fe02e0d9ffe3,20,2021-03-24_22h54.59.559,CombinedMST_OA,2020.2.10,Win32,60,,,,,,,,,,,,,,,,,,,,,,,,,,,,,,,,,,,,,,,,,,,,,,,,,,,1,1,0.811,0,4,4,4,1,Training/FO_YI_LAY.wav,OLD,,,,,,,,,,,,,,,,,,,,,,,,,,,,,,,,,,,,,,,,,,,,,,,,,,,,
,,,,,,,,,,,,TestWords/HA_SI_JAI.wav,,5ed4f048f7b6fe02e0d9ffe3,20,2021-03-24_22h54.59.559,CombinedMST_OA,2020.2.10,Win32,60,,,,,,,,,,,,,,,,,,,,,,,,,,,,,,,,,,,,,,,,,,,,,,,,,,,,,,,,,,,,,space,3.103,2,1,1.226,0,0,0,0,1,2,NEW,NEW,A,,,,,,,,,,,,,,,,,,,,,,,,,,,,,,,,,,,,,,
,,,,,,,,,,,,TestWords/KO_SU_FAI.wav,,5ed4f048f7b6fe02e0d9ffe3,20,2021-03-24_22h54.59.559,CombinedMST_OA,2020.2.10,Win32,60,,,,,,,,,,,,,,,,,,,,,,,,,,,,,,,,,,,,,,,,,,,,,,,,,,,,,,,,,,,,,,,2,1,0.636,0,1,1,1,1,2,NEW,NEW,A,,,,,,,,,,,,,,,,,,,,,,,,,,,,,,,,,,,,,,
,,,,,,,,,,,,TestWords/TAI_GI_SA.wav,,5ed4f048f7b6fe02e0d9ffe3,20,2021-03-24_22h54.59.559,CombinedMST_OA,2020.2.10,Win32,60,,,,,,,,,,,,,,,,,,,,,,,,,,,,,,,,,,,,,,,,,,,,,,,,,,,,,,,,,,,,,,,2,1,1.018,0,2,2,2,1,2,NEW,NEW,A,,,,,,,,,,,,,,,,,,,,,,,,,,,,,,,,,,,,,,
,,,,,,,,,,,,TestWords/KAI_LAY_TA.wav,,5ed4f048f7b6fe02e0d9ffe3,20,2021-03-24_22h54.59.559,CombinedMST_OA,2020.2.10,Win32,60,,,,,,,,,,,,,,,,,,,,,,,,,,,,,,,,,,,,,,,,,,,,,,,,,,,,,,,,,,,,,,,2,1,1.342,0,3,3,3,1,2,NEW,NEW,A,,,,,,,,,,,,,,,,,,,,,,,,,,,,,,,,,,,,,,
,,,,,,,,,,,,TestWords/RAY_PA_TI.wav,,5ed4f048f7b6fe02e0d9ffe3,20,2021-03-24_22h54.59.559,CombinedMST_OA,2020.2.10,Win32,60,,,,,,,,,,,,,,,,,,,,,,,,,,,,,,,,,,,,,,,,,,,,,,,,,,,,,,,,,,,,,,,2,1,0.801,0,4,4,4,1,2,NEW,NEW,A,,,,,,,,,,,,,,,,,,,,,,,,,,,,,,,,,,,,,,
,,,,,,,,,,,,TestWords/KO_SU_FAI.wav,,5ed4f048f7b6fe02e0d9ffe3,20,2021-03-24_22h54.59.559,CombinedMST_OA,2020.2.10,Win32,60,,,,,,,,,,,,,,,,,,,,,,,,,,,,,,,,,,,,,,,,,,,,,,,,,,,,,,,,,,,,,,,2,0,2.077,0,5,5,5,1,1,OLD,OLD,A,,,,,,,,,,,,,,,,,,,,,,,,,,,,,,,,,,,,,,
,,,,,,,,,,,,TestWords/TAI_SA_GI.wav,,5ed4f048f7b6fe02e0d9ffe3,20,2021-03-24_22h54.59.559,CombinedMST_OA,2020.2.10,Win32,60,,,,,,,,,,,,,,,,,,,,,,,,,,,,,,,,,,,,,,,,,,,,,,,,,,,,,,,,,,,,,,,2,1,1.768,0,6,6,6,1,2,NEW,SIMILAR,A,,,,,,,,,,,,,,,,,,,,,,,,,,,,,,,,,,,,,,
,,,,,,,,,,,,TestWords/KAI_LAY_TA.wav,,5ed4f048f7b6fe02e0d9ffe3,20,2021-03-24_22h54.59.559,CombinedMST_OA,2020.2.10,Win32,60,,,,,,,,,,,,,,,,,,,,,,,,,,,,,,,,,,,,,,,,,,,,,,,,,,,,,,,,,,,,,,,1,1,2.592,0,7,7,7,1,1,OLD,OLD,A,,,,,,,,,,,,,,,,,,,,,,,,,,,,,,,,,,,,,,
,,,,,,,,,,,,TestWords/NA_WAI_VU.wav,,5ed4f048f7b6fe02e0d9ffe3,20,2021-03-24_22h54.59.559,CombinedMST_OA,2020.2.10,Win32,60,,,,,,,,,,,,,,,,,,,,,,,,,,,,,,,,,,,,,,,,,,,,,,,,,,,,,,,,,,,,,,,2,1,0.852,0,8,8,8,1,2,NEW,NEW,A,,,,,,,,,,,,,,,,,,,,,,,,,,,,,,,,,,,,,,
,,,,,,,,,,,,TestWords/KO_SU_FAI.wav,,5ed4f048f7b6fe02e0d9ffe3,20,2021-03-24_22h54.59.559,CombinedMST_OA,2020.2.10,Win32,60,,,,,,,,,,,,,,,,,,,,,,,,,,,,,,,,,,,,,,,,,,,,,,,,,,,,,,,,,,,,,,,1,1,0.642,0,9,9,9,1,1,OLD,OLD,A,,,,,,,,,,,,,,,,,,,,,,,,,,,,,,,,,,,,,,
,,,,,,,,,,,,TestWords/RAY_PA_TI.wav,,5ed4f048f7b6fe02e0d9ffe3,20,2021-03-24_22h54.59.559,CombinedMST_OA,2020.2.10,Win32,60,,,,,,,,,,,,,,,,,,,,,,,,,,,,,,,,,,,,,,,,,,,,,,,,,,,,,,,,,,,,,,,1,1,1.436,0,10,10,10,1,1,OLD,OLD,A,,,,,,,,,,,,,,,,,,,,,,,,,,,,,,,,,,,,,,
,,,,,,,,,,,,TestWords/GI_SA_TAI.wav,,5ed4f048f7b6fe02e0d9ffe3,20,2021-03-24_22h54.59.559,CombinedMST_OA,2020.2.10,Win32,60,,,,,,,,,,,,,,,,,,,,,,,,,,,,,,,,,,,,,,,,,,,,,,,,,,,,,,,,,,,,,,,2,1,1.808,0,11,11,11,1,2,NEW,SIMILAR,A,,,,,,,,,,,,,,,,,,,,,,,,,,,,,,,,,,,,,,
,,,,,,,,,,,,TestWords/WAI_VU_NA.wav,,5ed4f048f7b6fe02e0d9ffe3,20,2021-03-24_22h54.59.559,CombinedMST_OA,2020.2.10,Win32,60,,,,,,,,,,,,,,,,,,,,,,,,,,,,,,,,,,,,,,,,,,,,,,,,,,,,,,,,,,,,,,,2,1,0.874,0,12,12,12,1,2,NEW,SIMILAR,A,,,,,,,,,,,,,,,,,,,,,,,,,,,,,,,,,,,,,,
,,,,,,,,,,,,TestWords/KAI_LAY_TA.wav,,5ed4f048f7b6fe02e0d9ffe3,20,2021-03-24_22h54.59.559,CombinedMST_OA,2020.2.10,Win32,60,,,,,,,,,,,,,,,,,,,,,,,,,,,,,,,,,,,,,,,,,,,,,,,,,,,,,,,,,,,,,,,2,0,1.756,0,13,13,13,1,1,OLD,OLD,A,,,,,,,,,,,,,,,,,,,,,,,,,,,,,,,,,,,,,,
,,,,,,,,,,,,TestWords/SI_VAI_CHU.wav,,5ed4f048f7b6fe02e0d9ffe3,20,2021-03-24_22h54.59.559,CombinedMST_OA,2020.2.10,Win32,60,,,,,,,,,,,,,,,,,,,,,,,,,,,,,,,,,,,,,,,,,,,,,,,,,,,,,,,,,,,,,,,2,1,1.207,0,14,14,14,1,2,NEW,NEW,A,,,,,,,,,,,,,,,,,,,,,,,,,,,,,,,,,,,,,,
,,,,,,,,,,,,TestWords/GI_TAI_SA.wav,,5ed4f048f7b6fe02e0d9ffe3,20,2021-03-24_22h54.59.559,CombinedMST_OA,2020.2.10,Win32,60,,,,,,,,,,,,,,,,,,,,,,,,,,,,,,,,,,,,,,,,,,,,,,,,,,,,,,,,,,,,,,,2,1,1.321,0,15,15,15,1,2,NEW,SIMILAR,A,,,,,,,,,,,,,,,,,,,,,,,,,,,,,,,,,,,,,,
,,,,,,,,,,,,TestWords/KO_SU_FAI.wav,,5ed4f048f7b6fe02e0d9ffe3,20,2021-03-24_22h54.59.559,CombinedMST_OA,2020.2.10,Win32,60,,,,,,,,,,,,,,,,,,,,,,,,,,,,,,,,,,,,,,,,,,,,,,,,,,,,,,,,,,,,,,,1,1,0.986,0,16,16,16,1,1,OLD,OLD,A,,,,,,,,,,,,,,,,,,,,,,,,,,,,,,,,,,,,,,
,,,,,,,,,,,,TestWords/DA_CHU_VAI.wav,,5ed4f048f7b6fe02e0d9ffe3,20,2021-03-24_22h54.59.559,CombinedMST_OA,2020.2.10,Win32,60,,,,,,,,,,,,,,,,,,,,,,,,,,,,,,,,,,,,,,,,,,,,,,,,,,,,,,,,,,,,,,,2,1,1.51,0,17,17,17,1,2,NEW,NEW,A,,,,,,,,,,,,,,,,,,,,,,,,,,,,,,,,,,,,,,
,,,,,,,,,,,,TestWords/RAY_PA_TI.wav,,5ed4f048f7b6fe02e0d9ffe3,20,2021-03-24_22h54.59.559,CombinedMST_OA,2020.2.10,Win32,60,,,,,,,,,,,,,,,,,,,,,,,,,,,,,,,,,,,,,,,,,,,,,,,,,,,,,,,,,,,,,,,1,1,1.654,0,18,18,18,1,1,OLD,OLD,A,,,,,,,,,,,,,,,,,,,,,,,,,,,,,,,,,,,,,,
,,,,,,,,,,,,TestWords/KAI_LAY_TA.wav,,5ed4f048f7b6fe02e0d9ffe3,20,2021-03-24_22h54.59.559,CombinedMST_OA,2020.2.10,Win32,60,,,,,,,,,,,,,,,,,,,,,,,,,,,,,,,,,,,,,,,,,,,,,,,,,,,,,,,,,,,,,,,1,1,1.37,0,19,19,19,1,1,OLD,OLD,A,,,,,,,,,,,,,,,,,,,,,,,,,,,,,,,,,,,,,,
,,,,,,,,,,,,TestWords/WAI_NA_VU.wav,,5ed4f048f7b6fe02e0d9ffe3,20,2021-03-24_22h54.59.559,CombinedMST_OA,2020.2.10,Win32,60,,,,,,,,,,,,,,,,,,,,,,,,,,,,,,,,,,,,,,,,,,,,,,,,,,,,,,,,,,,,,,,1,0,1.99,0,20,20,20,1,2,NEW,SIMILAR,A,,,,,,,,,,,,,,,,,,,,,,,,,,,,,,,,,,,,,,
,,,,,,,,,,,,TestWords/KO_SU_FAI.wav,,5ed4f048f7b6fe02e0d9ffe3,20,2021-03-24_22h54.59.559,CombinedMST_OA,2020.2.10,Win32,60,,,,,,,,,,,,,,,,,,,,,,,,,,,,,,,,,,,,,,,,,,,,,,,,,,,,,,,,,,,,,,,1,1,1.952,0,21,21,21,1,1,OLD,OLD,A,,,,,,,,,,,,,,,,,,,,,,,,,,,,,,,,,,,,,,
,,,,,,,,,,,,TestWords/SA_TAI_GI.wav,,5ed4f048f7b6fe02e0d9ffe3,20,2021-03-24_22h54.59.559,CombinedMST_OA,2020.2.10,Win32,60,,,,,,,,,,,,,,,,,,,,,,,,,,,,,,,,,,,,,,,,,,,,,,,,,,,,,,,,,,,,,,,2,1,1.943,0,22,22,22,1,2,NEW,SIMILAR,A,,,,,,,,,,,,,,,,,,,,,,,,,,,,,,,,,,,,,,
,,,,,,,,,,,,TestWords/RAY_PA_TI.wav,,5ed4f048f7b6fe02e0d9ffe3,20,2021-03-24_22h54.59.559,CombinedMST_OA,2020.2.10,Win32,60,,,,,,,,,,,,,,,,,,,,,,,,,,,,,,,,,,,,,,,,,,,,,,,,,,,,,,,,,,,,,,,1,1,1.268,0,23,23,23,1,1,OLD,OLD,A,,,,,,,,,,,,,,,,,,,,,,,,,,,,,,,,,,,,,,
,,,,,,,,,,,,TestWords/VU_NA_WAI.wav,,5ed4f048f7b6fe02e0d9ffe3,20,2021-03-24_22h54.59.559,CombinedMST_OA,2020.2.10,Win32,60,,,,,,,,,,,,,,,,,,,,,,,,,,,,,,,,,,,,,,,,,,,,,,,,,,,,,,,,,,,,,,,1,0,0.902,0,24,24,24,1,2,NEW,SIMILAR,A,,,,,,,,,,,,,,,,,,,,,,,,,,,,,,,,,,,,,,
,,,,,,,,,,,,TestWords/KAI_LAY_TA.wav,,5ed4f048f7b6fe02e0d9ffe3,20,2021-03-24_22h54.59.559,CombinedMST_OA,2020.2.10,Win32,60,,,,,,,,,,,,,,,,,,,,,,,,,,,,,,,,,,,,,,,,,,,,,,,,,,,,,,,,,,,,,,,1,1,1.26,0,25,25,25,1,1,OLD,OLD,A,,,,,,,,,,,,,,,,,,,,,,,,,,,,,,,,,,,,,,
,,,,,,,,,,,,TestWords/WAI_RO_JU.wav,,5ed4f048f7b6fe02e0d9ffe3,20,2021-03-24_22h54.59.559,CombinedMST_OA,2020.2.10,Win32,60,,,,,,,,,,,,,,,,,,,,,,,,,,,,,,,,,,,,,,,,,,,,,,,,,,,,,,,,,,,,,,,1,0,1.153,0,26,26,26,1,2,NEW,NEW,A,,,,,,,,,,,,,,,,,,,,,,,,,,,,,,,,,,,,,,
,,,,,,,,,,,,TestWords/KO_SU_FAI.wav,,5ed4f048f7b6fe02e0d9ffe3,20,2021-03-24_22h54.59.559,CombinedMST_OA,2020.2.10,Win32,60,,,,,,,,,,,,,,,,,,,,,,,,,,,,,,,,,,,,,,,,,,,,,,,,,,,,,,,,,,,,,,,1,1,1.125,0,27,27,27,1,1,OLD,OLD,A,,,,,,,,,,,,,,,,,,,,,,,,,,,,,,,,,,,,,,
,,,,,,,,,,,,TestWords/SA_GI_TAI.wav,,5ed4f048f7b6fe02e0d9ffe3,20,2021-03-24_22h54.59.559,CombinedMST_OA,2020.2.10,Win32,60,,,,,,,,,,,,,,,,,,,,,,,,,,,,,,,,,,,,,,,,,,,,,,,,,,,,,,,,,,,,,,,1,0,1.437,0,28,28,28,1,2,NEW,SIMILAR,A,,,,,,,,,,,,,,,,,,,,,,,,,,,,,,,,,,,,,,
,,,,,,,,,,,,TestWords/RAY_PA_TI.wav,,5ed4f048f7b6fe02e0d9ffe3,20,2021-03-24_22h54.59.559,CombinedMST_OA,2020.2.10,Win32,60,,,,,,,,,,,,,,,,,,,,,,,,,,,,,,,,,,,,,,,,,,,,,,,,,,,,,,,,,,,,,,,1,1,1.336,0,29,29,29,1,1,OLD,OLD,A,,,,,,,,,,,,,,,,,,,,,,,,,,,,,,,,,,,,,,
,,,,,,,,,,,,TestWords/GA_MU_ZI.wav,,5ed4f048f7b6fe02e0d9ffe3,20,2021-03-24_22h54.59.559,CombinedMST_OA,2020.2.10,Win32,60,,,,,,,,,,,,,,,,,,,,,,,,,,,,,,,,,,,,,,,,,,,,,,,,,,,,,,,,,,,,,,,2,1,1.468,0,30,30,30,1,2,NEW,NEW,A,,,,,,,,,,,,,,,,,,,,,,,,,,,,,,,,,,,,,,
,,,,,,,,,,,,TestWords/KAI_LAY_TA.wav,,5ed4f048f7b6fe02e0d9ffe3,20,2021-03-24_22h54.59.559,CombinedMST_OA,2020.2.10,Win32,60,,,,,,,,,,,,,,,,,,,,,,,,,,,,,,,,,,,,,,,,,,,,,,,,,,,,,,,,,,,,,,,1,1,1.038,0,31,31,31,1,1,OLD,OLD,A,,,,,,,,,,,,,,,,,,,,,,,,,,,,,,,,,,,,,,
,,,,,,,,,,,,TestWords/VU_WAI_NA.wav,,5ed4f048f7b6fe02e0d9ffe3,20,2021-03-24_22h54.59.559,CombinedMST_OA,2020.2.10,Win32,60,,,,,,,,,,,,,,,,,,,,,,,,,,,,,,,,,,,,,,,,,,,,,,,,,,,,,,,,,,,,,,,2,1,1.625,0,32,32,32,1,2,NEW,SIMILAR,A,,,,,,,,,,,,,,,,,,,,,,,,,,,,,,,,,,,,,,
,,,,,,,,,,,,TestWords/RAY_PA_TI.wav,,5ed4f048f7b6fe02e0d9ffe3,20,2021-03-24_22h54.59.559,CombinedMST_OA,2020.2.10,Win32,60,,,,,,,,,,,,,,,,,,,,,,,,,,,,,,,,,,,,,,,,,,,,,,,,,,,,,,,,,,,,,,,1,1,1.385,0,33,33,33,1,1,OLD,OLD,A,,,,,,,,,,,,,,,,,,,,,,,,,,,,,,,,,,,,,,
,,,,,,,,,,,,TestWords/LI_KAY_BA.wav,,5ed4f048f7b6fe02e0d9ffe3,20,2021-03-24_22h54.59.559,CombinedMST_OA,2020.2.10,Win32,60,,,,,,,,,,,,,,,,,,,,,,,,,,,,,,,,,,,,,,,,,,,,,,,,,,,,,,,,,,,,,,,2,1,1.102,0,34,34,34,1,2,NEW,NEW,A,,,,,,,,,,,,,,,,,,,,,,,,,,,,,,,,,,,,,,
,,,,,,,,,,,,TestWords/HI_NAY_VA.wav,,5ed4f048f7b6fe02e0d9ffe3,20,2021-03-24_22h54.59.559,CombinedMST_OA,2020.2.10,Win32,60,,,,,,,,,,,,,,,,,,,,,,,,,,,,,,,,,,,,,,,,,,,,,,,,,,,,,,,,,,,,,,,2,1,1.456,0,35,35,35,1,2,NEW,NEW,A,,,,,,,,,,,,,,,,,,,,,,,,,,,,,,,,,,,,,,
,,,,,,,,,,,,TestWords/KO_SU_FAI.wav,,5ed4f048f7b6fe02e0d9ffe3,20,2021-03-24_22h54.59.559,CombinedMST_OA,2020.2.10,Win32,60,,,,,,,,,,,,,,,,,,,,,,,,,,,,,,,,,,,,,,,,,,,,,,,,,,,,,,,,,,,,,,,1,1,0.957,0,36,36,36,1,1,OLD,OLD,A,,,,,,,,,,,,,,,,,,,,,,,,,,,,,,,,,,,,,,
,,,,,,,,,,,,TestWords/NA_VU_WAI.wav,,5ed4f048f7b6fe02e0d9ffe3,20,2021-03-24_22h54.59.559,CombinedMST_OA,2020.2.10,Win32,60,,,,,,,,,,,,,,,,,,,,,,,,,,,,,,,,,,,,,,,,,,,,,,,,,,,,,,,,,,,,,,,2,1,0.869,0,37,37,37,1,2,NEW,SIMILAR,A,,,,,,,,,,,,,,,,,,,,,,,,,,,,,,,,,,,,,,
,,,,,,,,,,,,TestWords/GA_MU_ZI.wav,,5ed4f048f7b6fe02e0d9ffe3,20,2021-03-24_22h54.59.559,CombinedMST_OA,2020.2.10,Win32,60,,,,,,,,,,,,,,,,,,,,,,,,,,,,,,,,,,,,,,,,,,,,,,,,,,,,,,,,,,,,,,,2,0,1.185,0,38,38,38,1,1,OLD,OLD,A,,,,,,,,,,,,,,,,,,,,,,,,,,,,,,,,,,,,,,
,,,,,,,,,,,,TestWords/KAI_LAY_TA.wav,,5ed4f048f7b6fe02e0d9ffe3,20,2021-03-24_22h54.59.559,CombinedMST_OA,2020.2.10,Win32,60,,,,,,,,,,,,,,,,,,,,,,,,,,,,,,,,,,,,,,,,,,,,,,,,,,,,,,,,,,,,,,,1,1,0.758,0,39,39,39,1,1,OLD,OLD,A,,,,,,,,,,,,,,,,,,,,,,,,,,,,,,,,,,,,,,
,,,,,,,,,,,,TestWords/DAI_RU_CHI.wav,,5ed4f048f7b6fe02e0d9ffe3,20,2021-03-24_22h54.59.559,CombinedMST_OA,2020.2.10,Win32,60,,,,,,,,,,,,,,,,,,,,,,,,,,,,,,,,,,,,,,,,,,,,,,,,,,,,,,,,,,,,,,,1,0,2.885,0,40,40,40,1,2,NEW,NEW,A,,,,,,,,,,,,,,,,,,,,,,,,,,,,,,,,,,,,,,
,,,,,,,,,,,,TestWords/NU_CHAY_SO.wav,,5ed4f048f7b6fe02e0d9ffe3,20,2021-03-24_22h54.59.559,CombinedMST_OA,2020.2.10,Win32,60,,,,,,,,,,,,,,,,,,,,,,,,,,,,,,,,,,,,,,,,,,,,,,,,,,,,,,,,,,,,,,,2,1,1.587,0,41,41,41,1,2,NEW,NEW,A,,,,,,,,,,,,,,,,,,,,,,,,,,,,,,,,,,,,,,
,,,,,,,,,,,,TestWords/RAY_PA_TI.wav,,5ed4f048f7b6fe02e0d9ffe3,20,2021-03-24_22h54.59.559,CombinedMST_OA,2020.2.10,Win32,60,,,,,,,,,,,,,,,,,,,,,,,,,,,,,,,,,,,,,,,,,,,,,,,,,,,,,,,,,,,,,,,1,1,0.986,0,42,42,42,1,1,OLD,OLD,A,,,,,,,,,,,,,,,,,,,,,,,,,,,,,,,,,,,,,,
,,,,,,,,,,,,TestWords/BA_KAY_LI.wav,,5ed4f048f7b6fe02e0d9ffe3,20,2021-03-24_22h54.59.559,CombinedMST_OA,2020.2.10,Win32,60,,,,,,,,,,,,,,,,,,,,,,,,,,,,,,,,,,,,,,,,,,,,,,,,,,,,,,,,,,,,,,,2,1,1.357,0,43,43,43,1,2,NEW,SIMILAR,A,,,,,,,,,,,,,,,,,,,,,,,,,,,,,,,,,,,,,,
,,,,,,,,,,,,TestWords/KO_SU_FAI.wav,,5ed4f048f7b6fe02e0d9ffe3,20,2021-03-24_22h54.59.559,CombinedMST_OA,2020.2.10,Win32,60,,,,,,,,,,,,,,,,,,,,,,,,,,,,,,,,,,,,,,,,,,,,,,,,,,,,,,,,,,,,,,,1,1,1.369,0,44,44,44,1,1,OLD,OLD,A,,,,,,,,,,,,,,,,,,,,,,,,,,,,,,,,,,,,,,
,,,,,,,,,,,,TestWords/GA_MU_ZI.wav,,5ed4f048f7b6fe02e0d9ffe3,20,2021-03-24_22h54.59.559,CombinedMST_OA,2020.2.10,Win32,60,,,,,,,,,,,,,,,,,,,,,,,,,,,,,,,,,,,,,,,,,,,,,,,,,,,,,,,,,,,,,,,1,1,3.093,0,45,45,45,1,1,OLD,OLD,A,,,,,,,,,,,,,,,,,,,,,,,,,,,,,,,,,,,,,,
,,,,,,,,,,,,TestWords/CHU_LA_PAY.wav,,5ed4f048f7b6fe02e0d9ffe3,20,2021-03-24_22h54.59.559,CombinedMST_OA,2020.2.10,Win32,60,,,,,,,,,,,,,,,,,,,,,,,,,,,,,,,,,,,,,,,,,,,,,,,,,,,,,,,,,,,,,,,2,1,1.207,0,46,46,46,1,2,NEW,NEW,A,,,,,,,,,,,,,,,,,,,,,,,,,,,,,,,,,,,,,,
,,,,,,,,,,,,TestWords/KAI_LAY_TA.wav,,5ed4f048f7b6fe02e0d9ffe3,20,2021-03-24_22h54.59.559,CombinedMST_OA,2020.2.10,Win32,60,,,,,,,,,,,,,,,,,,,,,,,,,,,,,,,,,,,,,,,,,,,,,,,,,,,,,,,,,,,,,,,1,1,2.369,0,47,47,47,1,1,OLD,OLD,A,,,,,,,,,,,,,,,,,,,,,,,,,,,,,,,,,,,,,,
,,,,,,,,,,,,TestWords/DAI_RU_CHI.wav,,5ed4f048f7b6fe02e0d9ffe3,20,2021-03-24_22h54.59.559,CombinedMST_OA,2020.2.10,Win32,60,,,,,,,,,,,,,,,,,,,,,,,,,,,,,,,,,,,,,,,,,,,,,,,,,,,,,,,,,,,,,,,1,1,2.968,0,48,48,48,1,1,OLD,OLD,A,,,,,,,,,,,,,,,,,,,,,,,,,,,,,,,,,,,,,,
,,,,,,,,,,,,TestWords/KO_SU_FAI.wav,,5ed4f048f7b6fe02e0d9ffe3,20,2021-03-24_22h54.59.559,CombinedMST_OA,2020.2.10,Win32,60,,,,,,,,,,,,,,,,,,,,,,,,,,,,,,,,,,,,,,,,,,,,,,,,,,,,,,,,,,,,,,,1,1,0.996,0,49,49,49,1,1,OLD,OLD,A,,,,,,,,,,,,,,,,,,,,,,,,,,,,,,,,,,,,,,
,,,,,,,,,,,,TestWords/KAY_LI_BA.wav,,5ed4f048f7b6fe02e0d9ffe3,20,2021-03-24_22h54.59.559,CombinedMST_OA,2020.2.10,Win32,60,,,,,,,,,,,,,,,,,,,,,,,,,,,,,,,,,,,,,,,,,,,,,,,,,,,,,,,,,,,,,,,1,0,1.108,0,50,50,50,1,2,NEW,SIMILAR,A,,,,,,,,,,,,,,,,,,,,,,,,,,,,,,,,,,,,,,
,,,,,,,,,,,,TestWords/RAY_PA_TI.wav,,5ed4f048f7b6fe02e0d9ffe3,20,2021-03-24_22h54.59.559,CombinedMST_OA,2020.2.10,Win32,60,,,,,,,,,,,,,,,,,,,,,,,,,,,,,,,,,,,,,,,,,,,,,,,,,,,,,,,,,,,,,,,1,1,1.202,0,51,51,51,1,1,OLD,OLD,A,,,,,,,,,,,,,,,,,,,,,,,,,,,,,,,,,,,,,,
,,,,,,,,,,,,TestWords/KAI_LAY_TA.wav,,5ed4f048f7b6fe02e0d9ffe3,20,2021-03-24_22h54.59.559,CombinedMST_OA,2020.2.10,Win32,60,,,,,,,,,,,,,,,,,,,,,,,,,,,,,,,,,,,,,,,,,,,,,,,,,,,,,,,,,,,,,,,1,1,1.093,0,52,52,52,1,1,OLD,OLD,A,,,,,,,,,,,,,,,,,,,,,,,,,,,,,,,,,,,,,,
,,,,,,,,,,,,TestWords/HO_NAY_VA.wav,,5ed4f048f7b6fe02e0d9ffe3,20,2021-03-24_22h54.59.559,CombinedMST_OA,2020.2.10,Win32,60,,,,,,,,,,,,,,,,,,,,,,,,,,,,,,,,,,,,,,,,,,,,,,,,,,,,,,,,,,,,,,,2,1,1.092,0,53,53,53,1,2,NEW,NEW,A,,,,,,,,,,,,,,,,,,,,,,,,,,,,,,,,,,,,,,
,,,,,,,,,,,,TestWords/GA_MU_ZI.wav,,5ed4f048f7b6fe02e0d9ffe3,20,2021-03-24_22h54.59.559,CombinedMST_OA,2020.2.10,Win32,60,,,,,,,,,,,,,,,,,,,,,,,,,,,,,,,,,,,,,,,,,,,,,,,,,,,,,,,,,,,,,,,1,1,1.091,0,54,54,54,1,1,OLD,OLD,A,,,,,,,,,,,,,,,,,,,,,,,,,,,,,,,,,,,,,,
,,,,,,,,,,,,TestWords/DAI_RU_CHI.wav,,5ed4f048f7b6fe02e0d9ffe3,20,2021-03-24_22h54.59.559,CombinedMST_OA,2020.2.10,Win32,60,,,,,,,,,,,,,,,,,,,,,,,,,,,,,,,,,,,,,,,,,,,,,,,,,,,,,,,,,,,,,,,1,1,1.489,0,55,55,55,1,1,OLD,OLD,A,,,,,,,,,,,,,,,,,,,,,,,,,,,,,,,,,,,,,,
,,,,,,,,,,,,TestWords/MO_PU_DAY.wav,,5ed4f048f7b6fe02e0d9ffe3,20,2021-03-24_22h54.59.559,CombinedMST_OA,2020.2.10,Win32,60,,,,,,,,,,,,,,,,,,,,,,,,,,,,,,,,,,,,,,,,,,,,,,,,,,,,,,,,,,,,,,,2,1,0.695,0,56,56,56,1,2,NEW,NEW,A,,,,,,,,,,,,,,,,,,,,,,,,,,,,,,,,,,,,,,
,,,,,,,,,,,,TestWords/KO_SU_FAI.wav,,5ed4f048f7b6fe02e0d9ffe3,20,2021-03-24_22h54.59.559,CombinedMST_OA,2020.2.10,Win32,60,,,,,,,,,,,,,,,,,,,,,,,,,,,,,,,,,,,,,,,,,,,,,,,,,,,,,,,,,,,,,,,1,1,1.002,0,57,57,57,1,1,OLD,OLD,A,,,,,,,,,,,,,,,,,,,,,,,,,,,,,,,,,,,,,,
,,,,,,,,,,,,TestWords/KAY_BA_LI.wav,,5ed4f048f7b6fe02e0d9ffe3,20,2021-03-24_22h54.59.559,CombinedMST_OA,2020.2.10,Win32,60,,,,,,,,,,,,,,,,,,,,,,,,,,,,,,,,,,,,,,,,,,,,,,,,,,,,,,,,,,,,,,,1,0,1.394,0,58,58,58,1,2,NEW,SIMILAR,A,,,,,,,,,,,,,,,,,,,,,,,,,,,,,,,,,,,,,,
,,,,,,,,,,,,TestWords/RAY_PA_TI.wav,,5ed4f048f7b6fe02e0d9ffe3,20,2021-03-24_22h54.59.559,CombinedMST_OA,2020.2.10,Win32,60,,,,,,,,,,,,,,,,,,,,,,,,,,,,,,,,,,,,,,,,,,,,,,,,,,,,,,,,,,,,,,,1,1,1.027,0,59,59,59,1,1,OLD,OLD,A,,,,,,,,,,,,,,,,,,,,,,,,,,,,,,,,,,,,,,
,,,,,,,,,,,,TestWords/KAI_LAY_TA.wav,,5ed4f048f7b6fe02e0d9ffe3,20,2021-03-24_22h54.59.559,CombinedMST_OA,2020.2.10,Win32,60,,,,,,,,,,,,,,,,,,,,,,,,,,,,,,,,,,,,,,,,,,,,,,,,,,,,,,,,,,,,,,,1,1,0.768,0,60,60,60,1,1,OLD,OLD,A,,,,,,,,,,,,,,,,,,,,,,,,,,,,,,,,,,,,,,
,,,,,,,,,,,,TestWords/GA_MU_ZI.wav,,5ed4f048f7b6fe02e0d9ffe3,20,2021-03-24_22h54.59.559,CombinedMST_OA,2020.2.10,Win32,60,,,,,,,,,,,,,,,,,,,,,,,,,,,,,,,,,,,,,,,,,,,,,,,,,,,,,,,,,,,,,,,1,1,1.311,0,61,61,61,1,1,OLD,OLD,A,,,,,,,,,,,,,,,,,,,,,,,,,,,,,,,,,,,,,,
,,,,,,,,,,,,TestWords/DAY_PU_MO.wav,,5ed4f048f7b6fe02e0d9ffe3,20,2021-03-24_22h54.59.559,CombinedMST_OA,2020.2.10,Win32,60,,,,,,,,,,,,,,,,,,,,,,,,,,,,,,,,,,,,,,,,,,,,,,,,,,,,,,,,,,,,,,,2,1,0.99,0,62,62,62,1,2,NEW,SIMILAR,A,,,,,,,,,,,,,,,,,,,,,,,,,,,,,,,,,,,,,,
,,,,,,,,,,,,TestWords/DAI_RU_CHI.wav,,5ed4f048f7b6fe02e0d9ffe3,20,2021-03-24_22h54.59.559,CombinedMST_OA,2020.2.10,Win32,60,,,,,,,,,,,,,,,,,,,,,,,,,,,,,,,,,,,,,,,,,,,,,,,,,,,,,,,,,,,,,,,1,1,0.675,0,63,63,63,1,1,OLD,OLD,A,,,,,,,,,,,,,,,,,,,,,,,,,,,,,,,,,,,,,,
,,,,,,,,,,,,TestWords/LI_BA_KAY.wav,,5ed4f048f7b6fe02e0d9ffe3,20,2021-03-24_22h54.59.559,CombinedMST_OA,2020.2.10,Win32,60,,,,,,,,,,,,,,,,,,,,,,,,,,,,,,,,,,,,,,,,,,,,,,,,,,,,,,,,,,,,,,,2,1,1.02,0,64,64,64,1,2,NEW,SIMILAR,A,,,,,,,,,,,,,,,,,,,,,,,,,,,,,,,,,,,,,,
,,,,,,,,,,,,TestWords/KAI_LAY_TA.wav,,5ed4f048f7b6fe02e0d9ffe3,20,2021-03-24_22h54.59.559,CombinedMST_OA,2020.2.10,Win32,60,,,,,,,,,,,,,,,,,,,,,,,,,,,,,,,,,,,,,,,,,,,,,,,,,,,,,,,,,,,,,,,1,1,0.607,0,65,65,65,1,1,OLD,OLD,A,,,,,,,,,,,,,,,,,,,,,,,,,,,,,,,,,,,,,,
,,,,,,,,,,,,TestWords/KO_SU_FAI.wav,,5ed4f048f7b6fe02e0d9ffe3,20,2021-03-24_22h54.59.559,CombinedMST_OA,2020.2.10,Win32,60,,,,,,,,,,,,,,,,,,,,,,,,,,,,,,,,,,,,,,,,,,,,,,,,,,,,,,,,,,,,,,,1,1,0.652,0,66,66,66,1,1,OLD,OLD,A,,,,,,,,,,,,,,,,,,,,,,,,,,,,,,,,,,,,,,
,,,,,,,,,,,,TestWords/DAY_MO_PU.wav,,5ed4f048f7b6fe02e0d9ffe3,20,2021-03-24_22h54.59.559,CombinedMST_OA,2020.2.10,Win32,60,,,,,,,,,,,,,,,,,,,,,,,,,,,,,,,,,,,,,,,,,,,,,,,,,,,,,,,,,,,,,,,1,0,1.186,0,67,67,67,1,2,NEW,SIMILAR,A,,,,,,,,,,,,,,,,,,,,,,,,,,,,,,,,,,,,,,
,,,,,,,,,,,,TestWords/RAY_PA_TI.wav,,5ed4f048f7b6fe02e0d9ffe3,20,2021-03-24_22h54.59.559,CombinedMST_OA,2020.2.10,Win32,60,,,,,,,,,,,,,,,,,,,,,,,,,,,,,,,,,,,,,,,,,,,,,,,,,,,,,,,,,,,,,,,1,1,2.152,0,68,68,68,1,1,OLD,OLD,A,,,,,,,,,,,,,,,,,,,,,,,,,,,,,,,,,,,,,,
,,,,,,,,,,,,TestWords/GA_MU_ZI.wav,,5ed4f048f7b6fe02e0d9ffe3,20,2021-03-24_22h54.59.559,CombinedMST_OA,2020.2.10,Win32,60,,,,,,,,,,,,,,,,,,,,,,,,,,,,,,,,,,,,,,,,,,,,,,,,,,,,,,,,,,,,,,,1,1,1.002,0,69,69,69,1,1,OLD,OLD,A,,,,,,,,,,,,,,,,,,,,,,,,,,,,,,,,,,,,,,
,,,,,,,,,,,,TestWords/BA_LI_KAY.wav,,5ed4f048f7b6fe02e0d9ffe3,20,2021-03-24_22h54.59.559,CombinedMST_OA,2020.2.10,Win32,60,,,,,,,,,,,,,,,,,,,,,,,,,,,,,,,,,,,,,,,,,,,,,,,,,,,,,,,,,,,,,,,1,0,1.739,0,70,70,70,1,2,NEW,SIMILAR,A,,,,,,,,,,,,,,,,,,,,,,,,,,,,,,,,,,,,,,
,,,,,,,,,,,,TestWords/DAI_RU_CHI.wav,,5ed4f048f7b6fe02e0d9ffe3,20,2021-03-24_22h54.59.559,CombinedMST_OA,2020.2.10,Win32,60,,,,,,,,,,,,,,,,,,,,,,,,,,,,,,,,,,,,,,,,,,,,,,,,,,,,,,,,,,,,,,,2,0,4.769,0,71,71,71,1,1,OLD,OLD,A,,,,,,,,,,,,,,,,,,,,,,,,,,,,,,,,,,,,,,
,,,,,,,,,,,,TestWords/LU_HAI_BO.wav,,5ed4f048f7b6fe02e0d9ffe3,20,2021-03-24_22h54.59.559,CombinedMST_OA,2020.2.10,Win32,60,,,,,,,,,,,,,,,,,,,,,,,,,,,,,,,,,,,,,,,,,,,,,,,,,,,,,,,,,,,,,,,2,1,0.922,0,72,72,72,1,2,NEW,NEW,A,,,,,,,,,,,,,,,,,,,,,,,,,,,,,,,,,,,,,,
,,,,,,,,,,,,TestWords/RAY_PA_TI.wav,,5ed4f048f7b6fe02e0d9ffe3,20,2021-03-24_22h54.59.559,CombinedMST_OA,2020.2.10,Win32,60,,,,,,,,,,,,,,,,,,,,,,,,,,,,,,,,,,,,,,,,,,,,,,,,,,,,,,,,,,,,,,,1,1,0.735,0,73,73,73,1,1,OLD,OLD,A,,,,,,,,,,,,,,,,,,,,,,,,,,,,,,,,,,,,,,
,,,,,,,,,,,,TestWords/GA_MU_ZI.wav,,5ed4f048f7b6fe02e0d9ffe3,20,2021-03-24_22h54.59.559,CombinedMST_OA,2020.2.10,Win32,60,,,,,,,,,,,,,,,,,,,,,,,,,,,,,,,,,,,,,,,,,,,,,,,,,,,,,,,,,,,,,,,2,0,2.308,0,74,74,74,1,1,OLD,OLD,A,,,,,,,,,,,,,,,,,,,,,,,,,,,,,,,,,,,,,,
,,,,,,,,,,,,TestWords/MO_DAY_PU.wav,,5ed4f048f7b6fe02e0d9ffe3,20,2021-03-24_22h54.59.559,CombinedMST_OA,2020.2.10,Win32,60,,,,,,,,,,,,,,,,,,,,,,,,,,,,,,,,,,,,,,,,,,,,,,,,,,,,,,,,,,,,,,,2,1,1.089,0,75,75,75,1,2,NEW,SIMILAR,A,,,,,,,,,,,,,,,,,,,,,,,,,,,,,,,,,,,,,,
,,,,,,,,,,,,TestWords/DAI_RU_CHI.wav,,5ed4f048f7b6fe02e0d9ffe3,20,2021-03-24_22h54.59.559,CombinedMST_OA,2020.2.10,Win32,60,,,,,,,,,,,,,,,,,,,,,,,,,,,,,,,,,,,,,,,,,,,,,,,,,,,,,,,,,,,,,,,1,1,1.99,0,76,76,76,1,1,OLD,OLD,A,,,,,,,,,,,,,,,,,,,,,,,,,,,,,,,,,,,,,,
,,,,,,,,,,,,TestWords/ZO_FU_RAI.wav,,5ed4f048f7b6fe02e0d9ffe3,20,2021-03-24_22h54.59.559,CombinedMST_OA,2020.2.10,Win32,60,,,,,,,,,,,,,,,,,,,,,,,,,,,,,,,,,,,,,,,,,,,,,,,,,,,,,,,,,,,,,,,2,1,1.168,0,77,77,77,1,2,NEW,NEW,A,,,,,,,,,,,,,,,,,,,,,,,,,,,,,,,,,,,,,,
,,,,,,,,,,,,TestWords/NO_WA_BAY.wav,,5ed4f048f7b6fe02e0d9ffe3,20,2021-03-24_22h54.59.559,CombinedMST_OA,2020.2.10,Win32,60,,,,,,,,,,,,,,,,,,,,,,,,,,,,,,,,,,,,,,,,,,,,,,,,,,,,,,,,,,,,,,,2,1,0.801,0,78,78,78,1,2,NEW,NEW,A,,,,,,,,,,,,,,,,,,,,,,,,,,,,,,,,,,,,,,
,,,,,,,,,,,,TestWords/GA_MU_ZI.wav,,5ed4f048f7b6fe02e0d9ffe3,20,2021-03-24_22h54.59.559,CombinedMST_OA,2020.2.10,Win32,60,,,,,,,,,,,,,,,,,,,,,,,,,,,,,,,,,,,,,,,,,,,,,,,,,,,,,,,,,,,,,,,1,1,3.251,0,79,79,79,1,1,OLD,OLD,A,,,,,,,,,,,,,,,,,,,,,,,,,,,,,,,,,,,,,,
,,,,,,,,,,,,TestWords/DAI_RU_CHI.wav,,5ed4f048f7b6fe02e0d9ffe3,20,2021-03-24_22h54.59.559,CombinedMST_OA,2020.2.10,Win32,60,,,,,,,,,,,,,,,,,,,,,,,,,,,,,,,,,,,,,,,,,,,,,,,,,,,,,,,,,,,,,,,1,1,1.201,0,80,80,80,1,1,OLD,OLD,A,,,,,,,,,,,,,,,,,,,,,,,,,,,,,,,,,,,,,,
,,,,,,,,,,,,TestWords/PU_DAY_MO.wav,,5ed4f048f7b6fe02e0d9ffe3,20,2021-03-24_22h54.59.559,CombinedMST_OA,2020.2.10,Win32,60,,,,,,,,,,,,,,,,,,,,,,,,,,,,,,,,,,,,,,,,,,,,,,,,,,,,,,,,,,,,,,,2,1,0.689,0,81,81,81,1,2,NEW,SIMILAR,A,,,,,,,,,,,,,,,,,,,,,,,,,,,,,,,,,,,,,,
,,,,,,,,,,,,TestWords/RAI_ZO_FU.wav,,5ed4f048f7b6fe02e0d9ffe3,20,2021-03-24_22h54.59.559,CombinedMST_OA,2020.2.10,Win32,60,,,,,,,,,,,,,,,,,,,,,,,,,,,,,,,,,,,,,,,,,,,,,,,,,,,,,,,,,,,,,,,2,1,0.718,0,82,82,82,1,2,NEW,SIMILAR,A,,,,,,,,,,,,,,,,,,,,,,,,,,,,,,,,,,,,,,
,,,,,,,,,,,,TestWords/GA_MU_ZI.wav,,5ed4f048f7b6fe02e0d9ffe3,20,2021-03-24_22h54.59.559,CombinedMST_OA,2020.2.10,Win32,60,,,,,,,,,,,,,,,,,,,,,,,,,,,,,,,,,,,,,,,,,,,,,,,,,,,,,,,,,,,,,,,1,1,1.076,0,83,83,83,1,1,OLD,OLD,A,,,,,,,,,,,,,,,,,,,,,,,,,,,,,,,,,,,,,,
,,,,,,,,,,,,TestWords/PAI_LU_WA.wav,,5ed4f048f7b6fe02e0d9ffe3,20,2021-03-24_22h54.59.559,CombinedMST_OA,2020.2.10,Win32,60,,,,,,,,,,,,,,,,,,,,,,,,,,,,,,,,,,,,,,,,,,,,,,,,,,,,,,,,,,,,,,,1,0,1.253,0,84,84,84,1,2,NEW,NEW,A,,,,,,,,,,,,,,,,,,,,,,,,,,,,,,,,,,,,,,
,,,,,,,,,,,,TestWords/PU_MO_DAY.wav,,5ed4f048f7b6fe02e0d9ffe3,20,2021-03-24_22h54.59.559,CombinedMST_OA,2020.2.10,Win32,60,,,,,,,,,,,,,,,,,,,,,,,,,,,,,,,,,,,,,,,,,,,,,,,,,,,,,,,,,,,,,,,1,0,0.902,0,85,85,85,1,2,NEW,SIMILAR,A,,,,,,,,,,,,,,,,,,,,,,,,,,,,,,,,,,,,,,
,,,,,,,,,,,,TestWords/DAI_RU_CHI.wav,,5ed4f048f7b6fe02e0d9ffe3,20,2021-03-24_22h54.59.559,CombinedMST_OA,2020.2.10,Win32,60,,,,,,,,,,,,,,,,,,,,,,,,,,,,,,,,,,,,,,,,,,,,,,,,,,,,,,,,,,,,,,,1,1,0.669,0,86,86,86,1,1,OLD,OLD,A,,,,,,,,,,,,,,,,,,,,,,,,,,,,,,,,,,,,,,
,,,,,,,,,,,,TestWords/ZO_RAI_FU.wav,,5ed4f048f7b6fe02e0d9ffe3,20,2021-03-24_22h54.59.559,CombinedMST_OA,2020.2.10,Win32,60,,,,,,,,,,,,,,,,,,,,,,,,,,,,,,,,,,,,,,,,,,,,,,,,,,,,,,,,,,,,,,,1,0,1.035,0,87,87,87,1,2,NEW,SIMILAR,A,,,,,,,,,,,,,,,,,,,,,,,,,,,,,,,,,,,,,,
,,,,,,,,,,,,TestWords/FI_GU_CHA.wav,,5ed4f048f7b6fe02e0d9ffe3,20,2021-03-24_22h54.59.559,CombinedMST_OA,2020.2.10,Win32,60,,,,,,,,,,,,,,,,,,,,,,,,,,,,,,,,,,,,,,,,,,,,,,,,,,,,,,,,,,,,,,,2,1,0.935,0,88,88,88,1,2,NEW,NEW,A,,,,,,,,,,,,,,,,,,,,,,,,,,,,,,,,,,,,,,
,,,,,,,,,,,,TestWords/GA_MU_ZI.wav,,5ed4f048f7b6fe02e0d9ffe3,20,2021-03-24_22h54.59.559,CombinedMST_OA,2020.2.10,Win32,60,,,,,,,,,,,,,,,,,,,,,,,,,,,,,,,,,,,,,,,,,,,,,,,,,,,,,,,,,,,,,,,1,1,0.969,0,89,89,89,1,1,OLD,OLD,A,,,,,,,,,,,,,,,,,,,,,,,,,,,,,,,,,,,,,,
,,,,,,,,,,,,TestWords/DAI_RU_CHI.wav,,5ed4f048f7b6fe02e0d9ffe3,20,2021-03-24_22h54.59.559,CombinedMST_OA,2020.2.10,Win32,60,,,,,,,,,,,,,,,,,,,,,,,,,,,,,,,,,,,,,,,,,,,,,,,,,,,,,,,,,,,,,,,1,1,0.641,0,90,90,90,1,1,OLD,OLD,A,,,,,,,,,,,,,,,,,,,,,,,,,,,,,,,,,,,,,,
,,,,,,,,,,,,TestWords/FU_RAI_ZO.wav,,5ed4f048f7b6fe02e0d9ffe3,20,2021-03-24_22h54.59.559,CombinedMST_OA,2020.2.10,Win32,60,,,,,,,,,,,,,,,,,,,,,,,,,,,,,,,,,,,,,,,,,,,,,,,,,,,,,,,,,,,,,,,1,0,1.503,0,91,91,91,1,2,NEW,SIMILAR,A,,,,,,,,,,,,,,,,,,,,,,,,,,,,,,,,,,,,,,
,,,,,,,,,,,,TestWords/GU_CHAI_PI.wav,,5ed4f048f7b6fe02e0d9ffe3,20,2021-03-24_22h54.59.559,CombinedMST_OA,2020.2.10,Win32,60,,,,,,,,,,,,,,,,,,,,,,,,,,,,,,,,,,,,,,,,,,,,,,,,,,,,,,,,,,,,,,,1,0,0.938,0,92,92,92,1,2,NEW,NEW,A,,,,,,,,,,,,,,,,,,,,,,,,,,,,,,,,,,,,,,
,,,,,,,,,,,,TestWords/GA_MU_ZI.wav,,5ed4f048f7b6fe02e0d9ffe3,20,2021-03-24_22h54.59.559,CombinedMST_OA,2020.2.10,Win32,60,,,,,,,,,,,,,,,,,,,,,,,,,,,,,,,,,,,,,,,,,,,,,,,,,,,,,,,,,,,,,,,1,1,0.654,0,93,93,93,1,1,OLD,OLD,A,,,,,,,,,,,,,,,,,,,,,,,,,,,,,,,,,,,,,,
,,,,,,,,,,,,TestWords/DAI_RU_CHI.wav,,5ed4f048f7b6fe02e0d9ffe3,20,2021-03-24_22h54.59.559,CombinedMST_OA,2020.2.10,Win32,60,,,,,,,,,,,,,,,,,,,,,,,,,,,,,,,,,,,,,,,,,,,,,,,,,,,,,,,,,,,,,,,1,1,0.434,0,94,94,94,1,1,OLD,OLD,A,,,,,,,,,,,,,,,,,,,,,,,,,,,,,,,,,,,,,,
,,,,,,,,,,,,TestWords/FU_ZO_RAI.wav,,5ed4f048f7b6fe02e0d9ffe3,20,2021-03-24_22h54.59.559,CombinedMST_OA,2020.2.10,Win32,60,,,,,,,,,,,,,,,,,,,,,,,,,,,,,,,,,,,,,,,,,,,,,,,,,,,,,,,,,,,,,,,1,0,0.458,0,95,95,95,1,2,NEW,SIMILAR,A,,,,,,,,,,,,,,,,,,,,,,,,,,,,,,,,,,,,,,
,,,,,,,,,,,,TestWords/VAI_HO_LA.wav,,5ed4f048f7b6fe02e0d9ffe3,20,2021-03-24_22h54.59.559,CombinedMST_OA,2020.2.10,Win32,60,,,,,,,,,,,,,,,,,,,,,,,,,,,,,,,,,,,,,,,,,,,,,,,,,,,,,,,,,,,,,,,2,1,0.425,0,96,96,96,1,2,NEW,NEW,A,,,,,,,,,,,,,,,,,,,,,,,,,,,,,,,,,,,,,,
,,,,,,,,,,,,TestWords/DAI_RU_CHI.wav,,5ed4f048f7b6fe02e0d9ffe3,20,2021-03-24_22h54.59.559,CombinedMST_OA,2020.2.10,Win32,60,,,,,,,,,,,,,,,,,,,,,,,,,,,,,,,,,,,,,,,,,,,,,,,,,,,,,,,,,,,,,,,1,1,0.334,0,97,97,97,1,1,OLD,OLD,A,,,,,,,,,,,,,,,,,,,,,,,,,,,,,,,,,,,,,,
,,,,,,,,,,,,TestWords/LA_ZAY_CHAI.wav,,5ed4f048f7b6fe02e0d9ffe3,20,2021-03-24_22h54.59.559,CombinedMST_OA,2020.2.10,Win32,60,,,,,,,,,,,,,,,,,,,,,,,,,,,,,,,,,,,,,,,,,,,,,,,,,,,,,,,,,,,,,,,2,1,1.141,0,98,98,98,1,2,NEW,NEW,A,,,,,,,,,,,,,,,,,,,,,,,,,,,,,,,,,,,,,,
,,,,,,,,,,,,TestWords/RAI_FU_ZO.wav,,5ed4f048f7b6fe02e0d9ffe3,20,2021-03-24_22h54.59.559,CombinedMST_OA,2020.2.10,Win32,60,,,,,,,,,,,,,,,,,,,,,,,,,,,,,,,,,,,,,,,,,,,,,,,,,,,,,,,,,,,,,,,2,1,1.003,0,99,99,99,1,2,NEW,SIMILAR,A,,,,,,,,,,,,,,,,,,,,,,,,,,,,,,,,,,,,,,
,,,,,,,,,,,,,1,5ed4f048f7b6fe02e0d9ffe3,20,2021-03-24_22h54.59.559,CombinedMST_OA,2020.2.10,Win32,60,,,,,,,,,,,,,,,,,,,,,,,,,,,,,,,,,,,,,,,,,,,,,,,,,,,,,,,,,,,SyllableCheck/TI.wav,,,,,,,,,,,,,,,,return,13.766,pink,space,7.527,1,1,5.549,0,0,0,0,1,TI,TEE,DEE,SEE,,,,,,,,,,,,,,,,,,,,,
,,,,,,,,,,,,,2,5ed4f048f7b6fe02e0d9ffe3,20,2021-03-24_22h54.59.559,CombinedMST_OA,2020.2.10,Win32,60,,,,,,,,,,,,,,,,,,,,,,,,,,,,,,,,,,,,,,,,,,,,,,,,,,,,,,,,,,,SyllableCheck/SU.wav,,,,,,,,,,,,,,,,,,,,,2,1,2.916,0,1,1,1,1,SU,SO,SU,ZU,,,,,,,,,,,,,,,,,,,,,
,,,,,,,,,,,,,3,5ed4f048f7b6fe02e0d9ffe3,20,2021-03-24_22h54.59.559,CombinedMST_OA,2020.2.10,Win32,60,,,,,,,,,,,,,,,,,,,,,,,,,,,,,,,,,,,,,,,,,,,,,,,,,,,,,,,,,,,SyllableCheck/BA.wav,,,,,,,,,,,,,,,,,,,,,1,0,2.349,0,2,2,4,1,BA,PA,BEE,BA,,,,,,,,,,,,,,,,,,,,,
,,,,,,,,,,,,,2,5ed4f048f7b6fe02e0d9ffe3,20,2021-03-24_22h54.59.559,CombinedMST_OA,2020.2.10,Win32,60,,,,,,,,,,,,,,,,,,,,,,,,,,,,,,,,,,,,,,,,,,,,,,,,,,,,,,,,,,,SyllableCheck/KAY.wav,,,,,,,,,,,,,,,,,,,,,2,1,3.399,0,3,3,2,1,KAY,KEE,KAY,HAY,,,,,,,,,,,,,,,,,,,,,
,,,,,,,,,,,,,3,5ed4f048f7b6fe02e0d9ffe3,20,2021-03-24_22h54.59.559,CombinedMST_OA,2020.2.10,Win32,60,,,,,,,,,,,,,,,,,,,,,,,,,,,,,,,,,,,,,,,,,,,,,,,,,,,,,,,,,,,SyllableCheck/FU.wav,,,,,,,,,,,,,,,,,,,,,3,1,2.063,0,4,4,3,1,FU,VU,FO,FU,,,,,,,,,,,,,,,,,,,,,
,,,,,,,,,,,,,,5ed4f048f7b6fe02e0d9ffe3,20,2021-03-24_22h54.59.559,CombinedMST_OA,2020.2.10,Win32,60,,,,,,,,,,,,,,,,,,,,,,,,,,,,,,,,,,,,,,,,,,,,,,,,,,,,,,,,,,,,,,,,,,,,,,,,,,,,,,,,,,,,,,,,,,,,0,0,0,0,1,,,,,,,,,,,,,,,,
,,,,,,,,,,,,,,5ed4f048f7b6fe02e0d9ffe3,20,2021-03-24_22h54.59.559,CombinedMST_OA,2020.2.10,Win32,60,,,,,,,,,,,,,,,,,,,,,,,,,,,,,,,,,,,,,,,,0,1,1,0,1,1,0,,,,,,,,,,,,,,,,,,,,,,,,,,,,,,,,,,,,,,,,,,,,,,,,,,,,,,,,,,,,,,,,,,
,,,,,,,,,,,,,,5ed4f048f7b6fe02e0d9ffe3,20,2021-03-24_22h54.59.559,CombinedMST_OA,2020.2.10,Win32,60,,,,,,,,,,,,,,,,,,,,,,,,,,,,,,,,,,,,,,,,,,,,,,,,,,,,,,,,,,,,,,,,,,,,,,,,,,,,,,,,,,,,,,,,,,,,,,,,,space,3.954,space,27.151,return,51.463,horse neighing,0,0,0,43,1,SoundMST/Growl_G.wav,SIMILAR,,
,,,,,,,,,,,,,,5ed4f048f7b6fe02e0d9ffe3,20,2021-03-24_22h54.59.559,CombinedMST_OA,2020.2.10,Win32,60,,,,,,,,,,,,,,,,,,,,,,,,,,,,,,,,,,,,,,,,,,,,,,,,,,,,,,,,,,,,,,,,,,,,,,,,,,,,,,,,,,,,,,,,,,,,,,,,,,,,,return,26.774, giggling child,0,1,1,28,1,SoundMST/Baby_F.wav,SIMILAR,,
,,,,,,,,,,,,,,5ed4f048f7b6fe02e0d9ffe3,20,2021-03-24_22h54.59.559,CombinedMST_OA,2020.2.10,Win32,60,,,,,,,,,,,,,,,,,,,,,,,,,,,,,,,,,,,,,,,,,,,,,,,,,,,,,,,,,,,,,,,,,,,,,,,,,,,,,,,,,,,,,,,,,,,,,,,,,,,,,return,26.088, duck ,0,2,2,8,1,SoundMST/Duck_D.wav,SIMILAR,,
,,,,,,,,,,,,,,5ed4f048f7b6fe02e0d9ffe3,20,2021-03-24_22h54.59.559,CombinedMST_OA,2020.2.10,Win32,60,,,,,,,,,,,,,,,,,,,,,,,,,,,,,,,,,,,,,,,,,,,,,,,,,,,,,,,,,,,,,,,,,,,,,,,,,,,,,,,,,,,,,,,,,,,,,,,,,,,,,return,8.864, dog barking,0,3,3,41,1,SoundMST/Dog_H.wav,SIMILAR,,
,,,,,,,,,,,,,,5ed4f048f7b6fe02e0d9ffe3,20,2021-03-24_22h54.59.559,CombinedMST_OA,2020.2.10,Win32,60,,,,,,,,,,,,,,,,,,,,,,,,,,,,,,,,,,,,,,,,,,,,,,,,,,,,,,,,,,,,,,,,,,,,,,,,,,,,,,,,,,,,,,,,,,,,,,,,,,,,,return,10.809, train clacson,0,4,4,86,1,SoundMST/Steam.wav,SAME,,
,,,,,,,,,,,,,,5ed4f048f7b6fe02e0d9ffe3,20,2021-03-24_22h54.59.559,CombinedMST_OA,2020.2.10,Win32,60,,,,,,,,,,,,,,,,,,,,,,,,,,,,,,,,,,,,,,,,,,,,,,,,,,,,,,,,,,,,,,,,,,,,,,,,,,,,,,,,,,,,,,,,,,,,,,,,,,,,,return,16.573, drops falling,0,5,5,85,1,SoundMST/Droplet_B.wav,SAME,,
,,,,,,,,,,,,,,5ed4f048f7b6fe02e0d9ffe3,20,2021-03-24_22h54.59.559,CombinedMST_OA,2020.2.10,Win32,60,,,,,,,,,,,,,,,,,,,,,,,,,,,,,,,,,,,,,,,,,,,,,,,,,,,,,,,,,,,,,,,,,,,,,,,,,,,,,,,,,,,,,,,,,,,,,,,,,,,,,return,28.341, instrument playing (accordion maybe),0,6,6,69,1,SoundMST/Bagpipe.wav,SAME,,
,,,,,,,,,,,,,,5ed4f048f7b6fe02e0d9ffe3,20,2021-03-24_22h54.59.559,CombinedMST_OA,2020.2.10,Win32,60,,,,,,,,,,,,,,,,,,,,,,,,,,,,,,,,,,,,,,,,,,,,,,,,,,,,,,,,,,,,,,,,,,,,,,,,,,,,,,,,,,,,,,,,,,,,,,,,,,,,,return,17.468, whistle,0,7,7,11,1,SoundMST/Whistle_C.wav,SIMILAR,,
,,,,,,,,,,,,,,5ed4f048f7b6fe02e0d9ffe3,20,2021-03-24_22h54.59.559,CombinedMST_OA,2020.2.10,Win32,60,,,,,,,,,,,,,,,,,,,,,,,,,,,,,,,,,,,,,,,,,,,,,,,,,,,,,,,,,,,,,,,,,,,,,,,,,,,,,,,,,,,,,,,,,,,,,,,,,,,,,return,5.895, bells ringing,0,8,8,2,1,SoundMST/Chime_A.wav,SIMILAR,,
,,,,,,,,,,,,,,5ed4f048f7b6fe02e0d9ffe3,20,2021-03-24_22h54.59.559,CombinedMST_OA,2020.2.10,Win32,60,,,,,,,,,,,,,,,,,,,,,,,,,,,,,,,,,,,,,,,,,,,,,,,,,,,,,,,,,,,,,,,,,,,,,,,,,,,,,,,,,,,,,,,,,,,,,,,,,,,,,return,6.675, steps of someone,0,9,9,40,1,SoundMST/Footsteps_C.wav,SIMILAR,,
,,,,,,,,,,,,,,5ed4f048f7b6fe02e0d9ffe3,20,2021-03-24_22h54.59.559,CombinedMST_OA,2020.2.10,Win32,60,,,,,,,,,,,,,,,,,,,,,,,,,,,,,,,,,,,,,,,,,,,,,,,,,,,,,,,,,,,,,,,,,,,,,,,,,,,,,,,,,,,,,,,,,,,,,,,,,,,,,return,10.989, someone whistling ,0,10,10,35,1,SoundMST/Whistle_B.wav,SIMILAR,,
,,,,,,,,,,,,,,5ed4f048f7b6fe02e0d9ffe3,20,2021-03-24_22h54.59.559,CombinedMST_OA,2020.2.10,Win32,60,,,,,,,,,,,,,,,,,,,,,,,,,,,,,,,,,,,,,,,,,,,,,,,,,,,,,,,,,,,,,,,,,,,,,,,,,,,,,,,,,,,,,,,,,,,,,,,,,,,,,return,54.553, cluck-cluck,0,11,11,60,1,SoundMST/Chicken_A.wav,SAME,,
,,,,,,,,,,,,,,5ed4f048f7b6fe02e0d9ffe3,20,2021-03-24_22h54.59.559,CombinedMST_OA,2020.2.10,Win32,60,,,,,,,,,,,,,,,,,,,,,,,,,,,,,,,,,,,,,,,,,,,,,,,,,,,,,,,,,,,,,,,,,,,,,,,,,,,,,,,,,,,,,,,,,,,,,,,,,,,,,return,5.665, heart beating,0,12,12,56,1,SoundMST/Heartbeat.wav,SAME,,
,,,,,,,,,,,,,,5ed4f048f7b6fe02e0d9ffe3,20,2021-03-24_22h54.59.559,CombinedMST_OA,2020.2.10,Win32,60,,,,,,,,,,,,,,,,,,,,,,,,,,,,,,,,,,,,,,,,,,,,,,,,,,,,,,,,,,,,,,,,,,,,,,,,,,,,,,,,,,,,,,,,,,,,,,,,,,,,,return,5.159, birds chirping,0,13,13,31,1,SoundMST/Bird_E.wav,SIMILAR,,
,,,,,,,,,,,,,,5ed4f048f7b6fe02e0d9ffe3,20,2021-03-24_22h54.59.559,CombinedMST_OA,2020.2.10,Win32,60,,,,,,,,,,,,,,,,,,,,,,,,,,,,,,,,,,,,,,,,,,,,,,,,,,,,,,,,,,,,,,,,,,,,,,,,,,,,,,,,,,,,,,,,,,,,,,,,,,,,,return,5.342, someone's steps,0,14,14,16,1,SoundMST/Footsteps_F.wav,SIMILAR,,
,,,,,,,,,,,,,,5ed4f048f7b6fe02e0d9ffe3,20,2021-03-24_22h54.59.559,CombinedMST_OA,2020.2.10,Win32,60,,,,,,,,,,,,,,,,,,,,,,,,,,,,,,,,,,,,,,,,,,,,,,,,,,,,,,,,,,,,,,,,,,,,,,,,,,,,,,,,,,,,,,,,,,,,,,,,,,,,,return,7.7, a car engine,0,15,15,22,1,SoundMST/CarStart_F.wav,SIMILAR,,
,,,,,,,,,,,,,,5ed4f048f7b6fe02e0d9ffe3,20,2021-03-24_22h54.59.559,CombinedMST_OA,2020.2.10,Win32,60,,,,,,,,,,,,,,,,,,,,,,,,,,,,,,,,,,,,,,,,,,,,,,,,,,,,,,,,,,,,,,,,,,,,,,,,,,,,,,,,,,,,,,,,,,,,,,,,,,,,,return,11.48, someone snoring,0,16,16,10,1,SoundMST/Snore_E.wav,SIMILAR,,
,,,,,,,,,,,,,,5ed4f048f7b6fe02e0d9ffe3,20,2021-03-24_22h54.59.559,CombinedMST_OA,2020.2.10,Win32,60,,,,,,,,,,,,,,,,,,,,,,,,,,,,,,,,,,,,,,,,,,,,,,,,,,,,,,,,,,,,,,,,,,,,,,,,,,,,,,,,,,,,,,,,,,,,,,,,,,,,,return,30.025, clock announcing an hour,0,17,17,75,1,SoundMST/Cuckoo_A.wav,SAME,,
,,,,,,,,,,,,,,5ed4f048f7b6fe02e0d9ffe3,20,2021-03-24_22h54.59.559,CombinedMST_OA,2020.2.10,Win32,60,,,,,,,,,,,,,,,,,,,,,,,,,,,,,,,,,,,,,,,,,,,,,,,,,,,,,,,,,,,,,,,,,,,,,,,,,,,,,,,,,,,,,,,,,,,,,,,,,,,,,return,6.863, telephone ringing,0,18,18,37,1,SoundMST/Phone_D.wav,SIMILAR,,
,,,,,,,,,,,,,,5ed4f048f7b6fe02e0d9ffe3,20,2021-03-24_22h54.59.559,CombinedMST_OA,2020.2.10,Win32,60,,,,,,,,,,,,,,,,,,,,,,,,,,,,,,,,,,,,,,,,,,,,,,,,,,,,,,,,,,,,,,,,,,,,,,,,,,,,,,,,,,,,,,,,,,,,,,,,,,,,,return,11.495, a packaging opening,0,19,19,81,1,SoundMST/PaperRip.wav,SAME,,
,,,,,,,,,,,,,,5ed4f048f7b6fe02e0d9ffe3,20,2021-03-24_22h54.59.559,CombinedMST_OA,2020.2.10,Win32,60,,,,,,,,,,,,,,,,,,,,,,,,,,,,,,,,,,,,,,,,,,,,,,,,,,,,,,,,,,,,,,,,,,,,,,,,,,,,,,,,,,,,,,,,,,,,,,,,,,,,,return,9.148, sirens,0,20,20,38,1,SoundMST/Siren_E.wav,SIMILAR,,
,,,,,,,,,,,,,,5ed4f048f7b6fe02e0d9ffe3,20,2021-03-24_22h54.59.559,CombinedMST_OA,2020.2.10,Win32,60,,,,,,,,,,,,,,,,,,,,,,,,,,,,,,,,,,,,,,,,,,,,,,,,,,,,,,,,,,,,,,,,,,,,,,,,,,,,,,,,,,,,,,,,,,,,,,,,,,,,,return,50.159,bubble water (but not certain),0,21,21,45,1,SoundMST/Bubbles_A.wav,SIMILAR,,
,,,,,,,,,,,,,,5ed4f048f7b6fe02e0d9ffe3,20,2021-03-24_22h54.59.559,CombinedMST_OA,2020.2.10,Win32,60,,,,,,,,,,,,,,,,,,,,,,,,,,,,,,,,,,,,,,,,,,,,,,,,,,,,,,,,,,,,,,,,,,,,,,,,,,,,,,,,,,,,,,,,,,,,,,,,,,,,,return,13.076, someone chewing,0,22,22,36,1,SoundMST/Chomp_A.wav,SIMILAR,,
,,,,,,,,,,,,,,5ed4f048f7b6fe02e0d9ffe3,20,2021-03-24_22h54.59.559,CombinedMST_OA,2020.2.10,Win32,60,,,,,,,,,,,,,,,,,,,,,,,,,,,,,,,,,,,,,,,,,,,,,,,,,,,,,,,,,,,,,,,,,,,,,,,,,,,,,,,,,,,,,,,,,,,,,,,,,,,,,return,11.475, an instrument playing ,0,23,23,61,1,SoundMST/Cello.wav,SAME,,
,,,,,,,,,,,,,,5ed4f048f7b6fe02e0d9ffe3,20,2021-03-24_22h54.59.559,CombinedMST_OA,2020.2.10,Win32,60,,,,,,,,,,,,,,,,,,,,,,,,,,,,,,,,,,,,,,,,,,,,,,,,,,,,,,,,,,,,,,,,,,,,,,,,,,,,,,,,,,,,,,,,,,,,,,,,,,,,,return,6.375, someone chewing,0,24,24,12,1,SoundMST/Chomp_C.wav,SIMILAR,,
,,,,,,,,,,,,,,5ed4f048f7b6fe02e0d9ffe3,20,2021-03-24_22h54.59.559,CombinedMST_OA,2020.2.10,Win32,60,,,,,,,,,,,,,,,,,,,,,,,,,,,,,,,,,,,,,,,,,,,,,,,,,,,,,,,,,,,,,,,,,,,,,,,,,,,,,,,,,,,,,,,,,,,,,,,,,,,,,return,5.381, someone snoring,0,25,25,34,1,SoundMST/Snore_D.wav,SIMILAR,,
,,,,,,,,,,,,,,5ed4f048f7b6fe02e0d9ffe3,20,2021-03-24_22h54.59.559,CombinedMST_OA,2020.2.10,Win32,60,,,,,,,,,,,,,,,,,,,,,,,,,,,,,,,,,,,,,,,,,,,,,,,,,,,,,,,,,,,,,,,,,,,,,,,,,,,,,,,,,,,,,,,,,,,,,,,,,,,,,return,12.296, a photo being taken,0,26,26,84,1,SoundMST/Camera.wav,SAME,,
,,,,,,,,,,,,,,5ed4f048f7b6fe02e0d9ffe3,20,2021-03-24_22h54.59.559,CombinedMST_OA,2020.2.10,Win32,60,,,,,,,,,,,,,,,,,,,,,,,,,,,,,,,,,,,,,,,,,,,,,,,,,,,,,,,,,,,,,,,,,,,,,,,,,,,,,,,,,,,,,,,,,,,,,,,,,,,,,return,14.576, a trumpet playing,0,27,27,63,1,SoundMST/Trumpet_B.wav,SAME,,
,,,,,,,,,,,,,,5ed4f048f7b6fe02e0d9ffe3,20,2021-03-24_22h54.59.559,CombinedMST_OA,2020.2.10,Win32,60,,,,,,,,,,,,,,,,,,,,,,,,,,,,,,,,,,,,,,,,,,,,,,,,,,,,,,,,,,,,,,,,,,,,,,,,,,,,,,,,,,,,,,,,,,,,,,,,,,,,,return,31.353, a burglar alarm ,0,28,28,14,1,SoundMST/Siren_A.wav,SIMILAR,,
,,,,,,,,,,,,,,5ed4f048f7b6fe02e0d9ffe3,20,2021-03-24_22h54.59.559,CombinedMST_OA,2020.2.10,Win32,60,,,,,,,,,,,,,,,,,,,,,,,,,,,,,,,,,,,,,,,,,,,,,,,,,,,,,,,,,,,,,,,,,,,,,,,,,,,,,,,,,,,,,,,,,,,,,,,,,,,,,return,25.869, someone dringing from a straw,0,29,29,66,1,SoundMST/Slurp.wav,SAME,,
,,,,,,,,,,,,,,5ed4f048f7b6fe02e0d9ffe3,20,2021-03-24_22h54.59.559,CombinedMST_OA,2020.2.10,Win32,60,,,,,,,,,,,,,,,,,,,,,,,,,,,,,,,,,,,,,,,,,,,,,,,,,,,,,,,,,,,,,,,,,,,,,,,,,,,,,,,,,,,,,,,,,,,,,,,,,,,,,return,14.475, a megaphone's sound,0,30,30,70,1,SoundMST/Airhorn.wav,SAME,,
,,,,,,,,,,,,,,5ed4f048f7b6fe02e0d9ffe3,20,2021-03-24_22h54.59.559,CombinedMST_OA,2020.2.10,Win32,60,,,,,,,,,,,,,,,,,,,,,,,,,,,,,,,,,,,,,,,,,,,,,,,,,,,,,,,,,,,,,,,,,,,,,,,,,,,,,,,,,,,,,,,,,,,,,,,,,,,,,return,11.523, someone coughing,0,31,31,30,1,SoundMST/Cough_D.wav,SIMILAR,,
,,,,,,,,,,,,,,5ed4f048f7b6fe02e0d9ffe3,20,2021-03-24_22h54.59.559,CombinedMST_OA,2020.2.10,Win32,60,,,,,,,,,,,,,,,,,,,,,,,,,,,,,,,,,,,,,,,,,,,,,,,,,,,,,,,,,,,,,,,,,,,,,,,,,,,,,,,,,,,,,,,,,,,,,,,,,,,,,return,7.326, someone doing strange verses,0,32,32,80,1,SoundMST/Howl.wav,SAME,,
,,,,,,,,,,,,,,5ed4f048f7b6fe02e0d9ffe3,20,2021-03-24_22h54.59.559,CombinedMST_OA,2020.2.10,Win32,60,,,,,,,,,,,,,,,,,,,,,,,,,,,,,,,,,,,,,,,,,,,,,,,,,,,,,,,,,,,,,,,,,,,,,,,,,,,,,,,,,,,,,,,,,,,,,,,,,,,,,return,4.182, bells ringing,0,33,33,26,1,SoundMST/Chime_B.wav,SIMILAR,,
,,,,,,,,,,,,,,5ed4f048f7b6fe02e0d9ffe3,20,2021-03-24_22h54.59.559,CombinedMST_OA,2020.2.10,Win32,60,,,,,,,,,,,,,,,,,,,,,,,,,,,,,,,,,,,,,,,,,,,,,,,,,,,,,,,,,,,,,,,,,,,,,,,,,,,,,,,,,,,,,,,,,,,,,,,,,,,,,return,8.21, someone writing with a pencil,0,34,34,27,1,SoundMST/Writing_A.wav,SIMILAR,,
,,,,,,,,,,,,,,5ed4f048f7b6fe02e0d9ffe3,20,2021-03-24_22h54.59.559,CombinedMST_OA,2020.2.10,Win32,60,,,,,,,,,,,,,,,,,,,,,,,,,,,,,,,,,,,,,,,,,,,,,,,,,,,,,,,,,,,,,,,,,,,,,,,,,,,,,,,,,,,,,,,,,,,,,,,,,,,,,return,15.275, a vacuum cleaner,0,35,35,74,1,SoundMST/HairDryer_A.wav,SAME,,
,,,,,,,,,,,,,,5ed4f048f7b6fe02e0d9ffe3,20,2021-03-24_22h54.59.559,CombinedMST_OA,2020.2.10,Win32,60,,,,,,,,,,,,,,,,,,,,,,,,,,,,,,,,,,,,,,,,,,,,,,,,,,,,,,,,,,,,,,,,,,,,,,,,,,,,,,,,,,,,,,,,,,,,,,,,,,,,,return,5.958, a cow ,0,36,36,24,1,SoundMST/Elephant_C.wav,SIMILAR,,
,,,,,,,,,,,,,,5ed4f048f7b6fe02e0d9ffe3,20,2021-03-24_22h54.59.559,CombinedMST_OA,2020.2.10,Win32,60,,,,,,,,,,,,,,,,,,,,,,,,,,,,,,,,,,,,,,,,,,,,,,,,,,,,,,,,,,,,,,,,,,,,,,,,,,,,,,,,,,,,,,,,,,,,,,,,,,,,,return,5.863, a bird chirping,0,37,37,15,1,SoundMST/Crow_A.wav,SIMILAR,,
,,,,,,,,,,,,,,5ed4f048f7b6fe02e0d9ffe3,20,2021-03-24_22h54.59.559,CombinedMST_OA,2020.2.10,Win32,60,,,,,,,,,,,,,,,,,,,,,,,,,,,,,,,,,,,,,,,,,,,,,,,,,,,,,,,,,,,,,,,,,,,,,,,,,,,,,,,,,,,,,,,,,,,,,,,,,,,,,return,12.707, someone sneezing,0,38,38,64,1,SoundMST/Sneeze_B.wav,SAME,,
,,,,,,,,,,,,,,5ed4f048f7b6fe02e0d9ffe3,20,2021-03-24_22h54.59.559,CombinedMST_OA,2020.2.10,Win32,60,,,,,,,,,,,,,,,,,,,,,,,,,,,,,,,,,,,,,,,,,,,,,,,,,,,,,,,,,,,,,,,,,,,,,,,,,,,,,,,,,,,,,,,,,,,,,,,,,,,,,return,13.332, a sheep ,0,39,39,44,1,SoundMST/Goat_B.wav,SIMILAR,,
,,,,,,,,,,,,,,5ed4f048f7b6fe02e0d9ffe3,20,2021-03-24_22h54.59.559,CombinedMST_OA,2020.2.10,Win32,60,,,,,,,,,,,,,,,,,,,,,,,,,,,,,,,,,,,,,,,,,,,,,,,,,,,,,,,,,,,,,,,,,,,,,,,,,,,,,,,,,,,,,,,,,,,,,,,,,,,,,return,19.859, something tapping,0,40,40,76,1,SoundMST/Hammer_A.wav,SAME,,
,,,,,,,,,,,,,,5ed4f048f7b6fe02e0d9ffe3,20,2021-03-24_22h54.59.559,CombinedMST_OA,2020.2.10,Win32,60,,,,,,,,,,,,,,,,,,,,,,,,,,,,,,,,,,,,,,,,,,,,,,,,,,,,,,,,,,,,,,,,,,,,,,,,,,,,,,,,,,,,,,,,,,,,,,,,,,,,,return,4.908, a horse,0,41,41,19,1,SoundMST/Growl_H.wav,SIMILAR,,
,,,,,,,,,,,,,,5ed4f048f7b6fe02e0d9ffe3,20,2021-03-24_22h54.59.559,CombinedMST_OA,2020.2.10,Win32,60,,,,,,,,,,,,,,,,,,,,,,,,,,,,,,,,,,,,,,,,,,,,,,,,,,,,,,,,,,,,,,,,,,,,,,,,,,,,,,,,,,,,,,,,,,,,,,,,,,,,,return,13.873, a cat meowing,0,42,42,65,1,SoundMST/Cat_A.wav,SAME,,
,,,,,,,,,,,,,,5ed4f048f7b6fe02e0d9ffe3,20,2021-03-24_22h54.59.559,CombinedMST_OA,2020.2.10,Win32,60,,,,,,,,,,,,,,,,,,,,,,,,,,,,,,,,,,,,,,,,,,,,,,,,,,,,,,,,,,,,,,,,,,,,,,,,,,,,,,,,,,,,,,,,,,,,,,,,,,,,,return,25.055, water being spilled,0,43,43,1,1,SoundMST/Pour_C.wav,SIMILAR,,
,,,,,,,,,,,,,,5ed4f048f7b6fe02e0d9ffe3,20,2021-03-24_22h54.59.559,CombinedMST_OA,2020.2.10,Win32,60,,,,,,,,,,,,,,,,,,,,,,,,,,,,,,,,,,,,,,,,,,,,,,,,,,,,,,,,,,,,,,,,,,,,,,,,,,,,,,,,,,,,,,,,,,,,,,,,,,,,,return,35.959, A little trumpet (not certain),0,44,44,32,1,SoundMST/Duck_C.wav,SIMILAR,,
,,,,,,,,,,,,,,5ed4f048f7b6fe02e0d9ffe3,20,2021-03-24_22h54.59.559,CombinedMST_OA,2020.2.10,Win32,60,,,,,,,,,,,,,,,,,,,,,,,,,,,,,,,,,,,,,,,,,,,,,,,,,,,,,,,,,,,,,,,,,,,,,,,,,,,,,,,,,,,,,,,,,,,,,,,,,,,,,return,13.04, the sound of a telephone call,0,45,45,54,1,SoundMST/DialTone.wav,SAME,,
,,,,,,,,,,,,,,5ed4f048f7b6fe02e0d9ffe3,20,2021-03-24_22h54.59.559,CombinedMST_OA,2020.2.10,Win32,60,,,,,,,,,,,,,,,,,,,,,,,,,,,,,,,,,,,,,,,,,,,,,,,,,,,,,,,,,,,,,,,,,,,,,,,,,,,,,,,,,,,,,,,,,,,,,,,,,,,,,return,15.723, fireworks,0,46,46,78,1,SoundMST/Fireworks.wav,SAME,,
,,,,,,,,,,,,,,5ed4f048f7b6fe02e0d9ffe3,20,2021-03-24_22h54.59.559,CombinedMST_OA,2020.2.10,Win32,60,,,,,,,,,,,,,,,,,,,,,,,,,,,,,,,,,,,,,,,,,,,,,,,,,,,,,,,,,,,,,,,,,,,,,,,,,,,,,,,,,,,,,,,,,,,,,,,,,,,,,return,9.348,hands clapping,0,47,47,23,1,SoundMST/Clap_C.wav,SIMILAR,,
,,,,,,,,,,,,,,5ed4f048f7b6fe02e0d9ffe3,20,2021-03-24_22h54.59.559,CombinedMST_OA,2020.2.10,Win32,60,,,,,,,,,,,,,,,,,,,,,,,,,,,,,,,,,,,,,,,,,,,,,,,,,,,,,,,,,,,,,,,,,,,,,,,,,,,,,,,,,,,,,,,,,,,,,,,,,,,,,return,18.113,someone writing with a chalk,0,48,48,3,1,SoundMST/Writing_C.wav,SIMILAR,,
,,,,,,,,,,,,,,5ed4f048f7b6fe02e0d9ffe3,20,2021-03-24_22h54.59.559,CombinedMST_OA,2020.2.10,Win32,60,,,,,,,,,,,,,,,,,,,,,,,,,,,,,,,,,,,,,,,,,,,,,,,,,,,,,,,,,,,,,,,,,,,,,,,,,,,,,,,,,,,,,,,,,,,,,,,,,,,,,return,3.907, a sheep,0,49,49,20,1,SoundMST/Goat_C.wav,SIMILAR,,
,,,,,,,,,,,,,,5ed4f048f7b6fe02e0d9ffe3,20,2021-03-24_22h54.59.559,CombinedMST_OA,2020.2.10,Win32,60,,,,,,,,,,,,,,,,,,,,,,,,,,,,,,,,,,,,,,,,,,,,,,,,,,,,,,,,,,,,,,,,,,,,,,,,,,,,,,,,,,,,,,,,,,,,,,,,,,,,,return,8.073, flushing the toilet,0,50,50,29,1,SoundMST/Faucet_A.wav,SIMILAR,,
,,,,,,,,,,,,,,5ed4f048f7b6fe02e0d9ffe3,20,2021-03-24_22h54.59.559,CombinedMST_OA,2020.2.10,Win32,60,,,,,,,,,,,,,,,,,,,,,,,,,,,,,,,,,,,,,,,,,,,,,,,,,,,,,,,,,,,,,,,,,,,,,,,,,,,,,,,,,,,,,,,,,,,,,,,,,,,,,return,4.397, bubbles,0,51,51,21,1,SoundMST/Bubbles_B.wav,SIMILAR,,
,,,,,,,,,,,,,,5ed4f048f7b6fe02e0d9ffe3,20,2021-03-24_22h54.59.559,CombinedMST_OA,2020.2.10,Win32,60,,,,,,,,,,,,,,,,,,,,,,,,,,,,,,,,,,,,,,,,,,,,,,,,,,,,,,,,,,,,,,,,,,,,,,,,,,,,,,,,,,,,,,,,,,,,,,,,,,,,,return,19.24, a cash maschine giving money (not certain),0,52,52,83,1,SoundMST/Printer.wav,SAME,,
,,,,,,,,,,,,,,5ed4f048f7b6fe02e0d9ffe3,20,2021-03-24_22h54.59.559,CombinedMST_OA,2020.2.10,Win32,60,,,,,,,,,,,,,,,,,,,,,,,,,,,,,,,,,,,,,,,,,,,,,,,,,,,,,,,,,,,,,,,,,,,,,,,,,,,,,,,,,,,,,,,,,,,,,,,,,,,,,return,8.35, a bird doing verses,0,53,53,87,1,SoundMST/Donkey.wav,SAME,,
,,,,,,,,,,,,,,5ed4f048f7b6fe02e0d9ffe3,20,2021-03-24_22h54.59.559,CombinedMST_OA,2020.2.10,Win32,60,,,,,,,,,,,,,,,,,,,,,,,,,,,,,,,,,,,,,,,,,,,,,,,,,,,,,,,,,,,,,,,,,,,,,,,,,,,,,,,,,,,,,,,,,,,,,,,,,,,,,return,26.187, a duck doing sounds,0,54,54,73,1,SoundMST/Bullfrog.wav,SAME,,
,,,,,,,,,,,,,,5ed4f048f7b6fe02e0d9ffe3,20,2021-03-24_22h54.59.559,CombinedMST_OA,2020.2.10,Win32,60,,,,,,,,,,,,,,,,,,,,,,,,,,,,,,,,,,,,,,,,,,,,,,,,,,,,,,,,,,,,,,,,,,,,,,,,,,,,,,,,,,,,,,,,,,,,,,,,,,,,,return,13.678, a telephone vibrating,0,55,55,52,1,SoundMST/Buzz.wav,SAME,,
,,,,,,,,,,,,,,5ed4f048f7b6fe02e0d9ffe3,20,2021-03-24_22h54.59.559,CombinedMST_OA,2020.2.10,Win32,60,,,,,,,,,,,,,,,,,,,,,,,,,,,,,,,,,,,,,,,,,,,,,,,,,,,,,,,,,,,,,,,,,,,,,,,,,,,,,,,,,,,,,,,,,,,,,,,,,,,,,return,22.776, water being poured,0,56,56,25,1,SoundMST/Pour_B.wav,SIMILAR,,
,,,,,,,,,,,,,,5ed4f048f7b6fe02e0d9ffe3,20,2021-03-24_22h54.59.559,CombinedMST_OA,2020.2.10,Win32,60,,,,,,,,,,,,,,,,,,,,,,,,,,,,,,,,,,,,,,,,,,,,,,,,,,,,,,,,,,,,,,,,,,,,,,,,,,,,,,,,,,,,,,,,,,,,,,,,,,,,,return,65.429, a toy for children being pressed,0,57,57,58,1,SoundMST/Puff_A.wav,SAME,,
,,,,,,,,,,,,,,5ed4f048f7b6fe02e0d9ffe3,20,2021-03-24_22h54.59.559,CombinedMST_OA,2020.2.10,Win32,60,,,,,,,,,,,,,,,,,,,,,,,,,,,,,,,,,,,,,,,,,,,,,,,,,,,,,,,,,,,,,,,,,,,,,,,,,,,,,,,,,,,,,,,,,,,,,,,,,,,,,return,3.775, wind,0,58,58,55,1,SoundMST/Wind_B.wav,SAME,,
,,,,,,,,,,,,,,5ed4f048f7b6fe02e0d9ffe3,20,2021-03-24_22h54.59.559,CombinedMST_OA,2020.2.10,Win32,60,,,,,,,,,,,,,,,,,,,,,,,,,,,,,,,,,,,,,,,,,,,,,,,,,,,,,,,,,,,,,,,,,,,,,,,,,,,,,,,,,,,,,,,,,,,,,,,,,,,,,return,19.198, an animal sound (don't know which animal),0,59,59,0,1,SoundMST/Elephant_A.wav,SIMILAR,,
,,,,,,,,,,,,,,5ed4f048f7b6fe02e0d9ffe3,20,2021-03-24_22h54.59.559,CombinedMST_OA,2020.2.10,Win32,60,,,,,,,,,,,,,,,,,,,,,,,,,,,,,,,,,,,,,,,,,,,,,,,,,,,,,,,,,,,,,,,,,,,,,,,,,,,,,,,,,,,,,,,,,,,,,,,,,,,,,return,5.848, hands clapping,0,60,60,47,1,SoundMST/Clap_B.wav,SIMILAR,,
,,,,,,,,,,,,,,5ed4f048f7b6fe02e0d9ffe3,20,2021-03-24_22h54.59.559,CombinedMST_OA,2020.2.10,Win32,60,,,,,,,,,,,,,,,,,,,,,,,,,,,,,,,,,,,,,,,,,,,,,,,,,,,,,,,,,,,,,,,,,,,,,,,,,,,,,,,,,,,,,,,,,,,,,,,,,,,,,return,13.838, a bee buzzing,0,61,61,53,1,SoundMST/Mosquito_B.wav,SAME,,
,,,,,,,,,,,,,,5ed4f048f7b6fe02e0d9ffe3,20,2021-03-24_22h54.59.559,CombinedMST_OA,2020.2.10,Win32,60,,,,,,,,,,,,,,,,,,,,,,,,,,,,,,,,,,,,,,,,,,,,,,,,,,,,,,,,,,,,,,,,,,,,,,,,,,,,,,,,,,,,,,,,,,,,,,,,,,,,,return,6.565, telephone ringing,0,62,62,13,1,SoundMST/Phone_E.wav,SIMILAR,,
,,,,,,,,,,,,,,5ed4f048f7b6fe02e0d9ffe3,20,2021-03-24_22h54.59.559,CombinedMST_OA,2020.2.10,Win32,60,,,,,,,,,,,,,,,,,,,,,,,,,,,,,,,,,,,,,,,,,,,,,,,,,,,,,,,,,,,,,,,,,,,,,,,,,,,,,,,,,,,,,,,,,,,,,,,,,,,,,return,12.106, a cow mooing,0,63,63,71,1,SoundMST/Cow.wav,SAME,,
,,,,,,,,,,,,,,5ed4f048f7b6fe02e0d9ffe3,20,2021-03-24_22h54.59.559,CombinedMST_OA,2020.2.10,Win32,60,,,,,,,,,,,,,,,,,,,,,,,,,,,,,,,,,,,,,,,,,,,,,,,,,,,,,,,,,,,,,,,,,,,,,,,,,,,,,,,,,,,,,,,,,,,,,,,,,,,,,return,6.775, bird chirping,0,64,64,7,1,SoundMST/Bird_A.wav,SIMILAR,,
,,,,,,,,,,,,,,5ed4f048f7b6fe02e0d9ffe3,20,2021-03-24_22h54.59.559,CombinedMST_OA,2020.2.10,Win32,60,,,,,,,,,,,,,,,,,,,,,,,,,,,,,,,,,,,,,,,,,,,,,,,,,,,,,,,,,,,,,,,,,,,,,,,,,,,,,,,,,,,,,,,,,,,,,,,,,,,,,return,42.303, something being moved (not certain),0,65,65,72,1,SoundMST/Bowlingpins.wav,SAME,,
,,,,,,,,,,,,,,5ed4f048f7b6fe02e0d9ffe3,20,2021-03-24_22h54.59.559,CombinedMST_OA,2020.2.10,Win32,60,,,,,,,,,,,,,,,,,,,,,,,,,,,,,,,,,,,,,,,,,,,,,,,,,,,,,,,,,,,,,,,,,,,,,,,,,,,,,,,,,,,,,,,,,,,,,,,,,,,,,return,17.755, castanets playing,0,66,66,50,1,SoundMST/Sleighbells_B.wav,SAME,,
,,,,,,,,,,,,,,5ed4f048f7b6fe02e0d9ffe3,20,2021-03-24_22h54.59.559,CombinedMST_OA,2020.2.10,Win32,60,,,,,,,,,,,,,,,,,,,,,,,,,,,,,,,,,,,,,,,,,,,,,,,,,,,,,,,,,,,,,,,,,,,,,,,,,,,,,,,,,,,,,,,,,,,,,,,,,,,,,return,9.757, people laughing,0,67,67,33,1,SoundMST/Laugh_A.wav,SIMILAR,,
,,,,,,,,,,,,,,5ed4f048f7b6fe02e0d9ffe3,20,2021-03-24_22h54.59.559,CombinedMST_OA,2020.2.10,Win32,60,,,,,,,,,,,,,,,,,,,,,,,,,,,,,,,,,,,,,,,,,,,,,,,,,,,,,,,,,,,,,,,,,,,,,,,,,,,,,,,,,,,,,,,,,,,,,,,,,,,,,return,34.066, a glass put down,0,68,68,68,1,SoundMST/Cup.wav,SAME,,
,,,,,,,,,,,,,,5ed4f048f7b6fe02e0d9ffe3,20,2021-03-24_22h54.59.559,CombinedMST_OA,2020.2.10,Win32,60,,,,,,,,,,,,,,,,,,,,,,,,,,,,,,,,,,,,,,,,,,,,,,,,,,,,,,,,,,,,,,,,,,,,,,,,,,,,,,,,,,,,,,,,,,,,,,,,,,,,,return,11.938, someone coughing,0,69,69,6,1,SoundMST/Cough_F.wav,SIMILAR,,
,,,,,,,,,,,,,,5ed4f048f7b6fe02e0d9ffe3,20,2021-03-24_22h54.59.559,CombinedMST_OA,2020.2.10,Win32,60,,,,,,,,,,,,,,,,,,,,,,,,,,,,,,,,,,,,,,,,,,,,,,,,,,,,,,,,,,,,,,,,,,,,,,,,,,,,,,,,,,,,,,,,,,,,,,,,,,,,,return,3.875, a thunder,0,70,70,48,1,SoundMST/Thunder_A.wav,SAME,,
,,,,,,,,,,,,,,5ed4f048f7b6fe02e0d9ffe3,20,2021-03-24_22h54.59.559,CombinedMST_OA,2020.2.10,Win32,60,,,,,,,,,,,,,,,,,,,,,,,,,,,,,,,,,,,,,,,,,,,,,,,,,,,,,,,,,,,,,,,,,,,,,,,,,,,,,,,,,,,,,,,,,,,,,,,,,,,,,return,16.572, an helicopter flying,0,71,71,79,1,SoundMST/Helicopter_A.wav,SAME,,
,,,,,,,,,,,,,,5ed4f048f7b6fe02e0d9ffe3,20,2021-03-24_22h54.59.559,CombinedMST_OA,2020.2.10,Win32,60,,,,,,,,,,,,,,,,,,,,,,,,,,,,,,,,,,,,,,,,,,,,,,,,,,,,,,,,,,,,,,,,,,,,,,,,,,,,,,,,,,,,,,,,,,,,,,,,,,,,,return,6.091, people laughing,0,72,72,9,1,SoundMST/Laugh_D.wav,SIMILAR,,
,,,,,,,,,,,,,,5ed4f048f7b6fe02e0d9ffe3,20,2021-03-24_22h54.59.559,CombinedMST_OA,2020.2.10,Win32,60,,,,,,,,,,,,,,,,,,,,,,,,,,,,,,,,,,,,,,,,,,,,,,,,,,,,,,,,,,,,,,,,,,,,,,,,,,,,,,,,,,,,,,,,,,,,,,,,,,,,,return,6.525, an helicopter flying,0,73,73,62,1,SoundMST/Airplane_B.wav,SAME,,
,,,,,,,,,,,,,,5ed4f048f7b6fe02e0d9ffe3,20,2021-03-24_22h54.59.559,CombinedMST_OA,2020.2.10,Win32,60,,,,,,,,,,,,,,,,,,,,,,,,,,,,,,,,,,,,,,,,,,,,,,,,,,,,,,,,,,,,,,,,,,,,,,,,,,,,,,,,,,,,,,,,,,,,,,,,,,,,,return,6.724, a guitar playing,0,74,74,59,1,SoundMST/Guitar_B.wav,SAME,,
,,,,,,,,,,,,,,5ed4f048f7b6fe02e0d9ffe3,20,2021-03-24_22h54.59.559,CombinedMST_OA,2020.2.10,Win32,60,,,,,,,,,,,,,,,,,,,,,,,,,,,,,,,,,,,,,,,,,,,,,,,,,,,,,,,,,,,,,,,,,,,,,,,,,,,,,,,,,,,,,,,,,,,,,,,,,,,,,return,5.557, someone whistling,0,75,75,67,1,SoundMST/ManWhistle.wav,SAME,,
,,,,,,,,,,,,,,5ed4f048f7b6fe02e0d9ffe3,20,2021-03-24_22h54.59.559,CombinedMST_OA,2020.2.10,Win32,60,,,,,,,,,,,,,,,,,,,,,,,,,,,,,,,,,,,,,,,,,,,,,,,,,,,,,,,,,,,,,,,,,,,,,,,,,,,,,,,,,,,,,,,,,,,,,,,,,,,,,return,4.349, a dog barking,0,76,76,17,1,SoundMST/Dog_F.wav,SIMILAR,,
,,,,,,,,,,,,,,5ed4f048f7b6fe02e0d9ffe3,20,2021-03-24_22h54.59.559,CombinedMST_OA,2020.2.10,Win32,60,,,,,,,,,,,,,,,,,,,,,,,,,,,,,,,,,,,,,,,,,,,,,,,,,,,,,,,,,,,,,,,,,,,,,,,,,,,,,,,,,,,,,,,,,,,,,,,,,,,,,return,47.381, little things (candies for instance) put in a jar,0,77,77,57,1,SoundMST/IceDrop.wav,SAME,,
,,,,,,,,,,,,,,5ed4f048f7b6fe02e0d9ffe3,20,2021-03-24_22h54.59.559,CombinedMST_OA,2020.2.10,Win32,60,,,,,,,,,,,,,,,,,,,,,,,,,,,,,,,,,,,,,,,,,,,,,,,,,,,,,,,,,,,,,,,,,,,,,,,,,,,,,,,,,,,,,,,,,,,,,,,,,,,,,return,24.504, water's running,0,78,78,5,1,SoundMST/Faucet_C.wav,SIMILAR,,
,,,,,,,,,,,,,,5ed4f048f7b6fe02e0d9ffe3,20,2021-03-24_22h54.59.559,CombinedMST_OA,2020.2.10,Win32,60,,,,,,,,,,,,,,,,,,,,,,,,,,,,,,,,,,,,,,,,,,,,,,,,,,,,,,,,,,,,,,,,,,,,,,,,,,,,,,,,,,,,,,,,,,,,,,,,,,,,,return,9.293, flushing the toilet,0,79,79,51,1,SoundMST/Toilet_B.wav,SAME,,
,,,,,,,,,,,,,,5ed4f048f7b6fe02e0d9ffe3,20,2021-03-24_22h54.59.559,CombinedMST_OA,2020.2.10,Win32,60,,,,,,,,,,,,,,,,,,,,,,,,,,,,,,,,,,,,,,,,,,,,,,,,,,,,,,,,,,,,,,,,,,,,,,,,,,,,,,,,,,,,,,,,,,,,,,,,,,,,,return,14.839,a car's engine ,0,80,80,46,1,SoundMST/CarStart_E.wav,SIMILAR,,
,,,,,,,,,,,,,,5ed4f048f7b6fe02e0d9ffe3,20,2021-03-24_22h54.59.559,CombinedMST_OA,2020.2.10,Win32,60,,,,,,,,,,,,,,,,,,,,,,,,,,,,,,,,,,,,,,,,,,,,,,,,,,,,,,,,,,,,,,,,,,,,,,,,,,,,,,,,,,,,,,,,,,,,,,,,,,,,,return,20.813, a cash maschine giving cents,0,81,81,18,1,SoundMST/Coin_E.wav,SIMILAR,,
,,,,,,,,,,,,,,5ed4f048f7b6fe02e0d9ffe3,20,2021-03-24_22h54.59.559,CombinedMST_OA,2020.2.10,Win32,60,,,,,,,,,,,,,,,,,,,,,,,,,,,,,,,,,,,,,,,,,,,,,,,,,,,,,,,,,,,,,,,,,,,,,,,,,,,,,,,,,,,,,,,,,,,,,,,,,,,,,return,20.303, a child doing little cute voices,0,82,82,4,1,SoundMST/Baby_E.wav,SIMILAR,,
,,,,,,,,,,,,,,5ed4f048f7b6fe02e0d9ffe3,20,2021-03-24_22h54.59.559,CombinedMST_OA,2020.2.10,Win32,60,,,,,,,,,,,,,,,,,,,,,,,,,,,,,,,,,,,,,,,,,,,,,,,,,,,,,,,,,,,,,,,,,,,,,,,,,,,,,,,,,,,,,,,,,,,,,,,,,,,,,return,20.155, a seabird's sound,0,83,83,39,1,SoundMST/Crow_B.wav,SIMILAR,,
,,,,,,,,,,,,,,5ed4f048f7b6fe02e0d9ffe3,20,2021-03-24_22h54.59.559,CombinedMST_OA,2020.2.10,Win32,60,,,,,,,,,,,,,,,,,,,,,,,,,,,,,,,,,,,,,,,,,,,,,,,,,,,,,,,,,,,,,,,,,,,,,,,,,,,,,,,,,,,,,,,,,,,,,,,,,,,,,return,6.71, a horse's sound,0,84,84,82,1,SoundMST/Horse.wav,SAME,,
,,,,,,,,,,,,,,5ed4f048f7b6fe02e0d9ffe3,20,2021-03-24_22h54.59.559,CombinedMST_OA,2020.2.10,Win32,60,,,,,,,,,,,,,,,,,,,,,,,,,,,,,,,,,,,,,,,,,,,,,,,,,,,,,,,,,,,,,,,,,,,,,,,,,,,,,,,,,,,,,,,,,,,,,,,,,,,,,return,37.436,a person writing on a keyboard,0,85,85,49,1,SoundMST/Typing.wav,SAME,,
,,,,,,,,,,,,,,5ed4f048f7b6fe02e0d9ffe3,20,2021-03-24_22h54.59.559,CombinedMST_OA,2020.2.10,Win32,60,,,,,,,,,,,,,,,,,,,,,,,,,,,,,,,,,,,,,,,,,,,,,,,,,,,,,,,,,,,,,,,,,,,,,,,,,,,,,,,,,,,,,,,,,,,,,,,,,,,,,return,5.276, a piano playing,0,86,86,77,1,SoundMST/Piano_D.wav,SAME,,
,,,,,,,,,,,,,,5ed4f048f7b6fe02e0d9ffe3,20,2021-03-24_22h54.59.559,CombinedMST_OA,2020.2.10,Win32,60,,,,,,,,,,,,,,,,,,,,,,,,,,,,,,,,,,,,,,,,,,,,,,,,,,,,,,,,,,,,,,,,,,,,,,,,,,,,,,,,,,,,,,,,,,,,,,,,,,,,,return,7.573, cash maschine giving cash,0,87,87,42,1,SoundMST/Coin_D.wav,SIMILAR,,
,,,,,,,,,,,,,,5ed4f048f7b6fe02e0d9ffe3,20,2021-03-24_22h54.59.559,CombinedMST_OA,2020.2.10,Win32,60,,,,,,,,,,,,,,,,,,,,,,,,,,,,,,,,,,,,,,,,,,,,,,,,,,,,,,,,,,,,,,,,,,,,,,,,,,,,,,,,,,,,,,,,,,,,,,,,,,,,,,,,,,,,,,,space,22.978
