VolumeContinueKey.keys,VolumeContinueKey.rt,HeadphoneContinueKey.keys,HeadphoneContinueKey.rt,CheckResp.keys,CheckResp.corr,CheckResp.rt,trials_3.thisRepN,trials_3.thisTrialN,trials_3.thisN,trials_3.thisIndex,trials_3.ran,File,Correct,participant,Age,date,expName,psychopyVersion,OS,frameRate,Welcome0ContKey.keys,Welcome0ContKey.rt,ContinueResp.keys,ContinueResp.rt,Wel2ContinueKey.keys,Wel2ContinueKey.rt,WelcomeContinueKey2.keys,WelcomeContinueKey2.rt,Practice_resp.keys,Practice_resp.corr,Practice_resp.rt,PracticeTrials.thisRepN,PracticeTrials.thisTrialN,PracticeTrials.thisN,PracticeTrials.thisIndex,PracticeTrials.ran,SoundFile,Type,StartTast.keys,StartTast.rt,MST_resp.keys,MST_resp.corr,MST_resp.rt,trials.thisRepN,trials.thisTrialN,trials.thisN,trials.thisIndex,trials.ran,WordCorrect,Correct_type,WordType,Condition,Attn1ContKey.keys,Attn1ContKey.rt,AttnCheckResp.text,SyllblCheckContKey.keys,SyllblCheckContKey.rt,SyllblCheckResp.keys,SyllblCheckResp.corr,SyllblCheckResp.rt,trials_2.thisRepN,trials_2.thisTrialN,trials_2.thisN,trials_2.thisIndex,trials_2.ran,Target,Word1,Word2,Word3,WordTask.thisRepN,WordTask.thisTrialN,WordTask.thisN,WordTask.thisIndex,WordTask.ran,Counterbalance.thisRepN,Counterbalance.thisTrialN,Counterbalance.thisN,Counterbalance.thisIndex,Counterbalance.ran,WordOrder,SoundOrder,key_resp.keys,key_resp.rt,WelcomeSound2ContKey.keys,WelcomeSound2ContKey.rt,PracticeSoundKey.keys,PracticeSoundKey.corr,PracticeSoundKey.rt,SoundPracticeLoop.thisRepN,SoundPracticeLoop.thisTrialN,SoundPracticeLoop.thisN,SoundPracticeLoop.thisIndex,SoundPracticeLoop.ran,SoundMST_File,SoundCorrect,Correct2,SoundType,Trial,MSTSoundStrtKey.keys,MSTSoundStrtKey.rt,MSTSoundKey.keys,MSTSoundKey.corr,MSTSoundKey.rt,MSTSoundLoop.thisRepN,MSTSoundLoop.thisTrialN,MSTSoundLoop.thisN,MSTSoundLoop.thisIndex,MSTSoundLoop.ran,AttnCheck2Keys.keys,AttnCheck2Keys.rt,AttnCheck2Resp.text,SoundTask.thisRepN,SoundTask.thisTrialN,SoundTask.thisN,SoundTask.thisIndex,SoundTask.ran,key_resp_4.keys,key_resp_4.rt,GuessSoundIntro2Cont.keys,GuessSoundIntro2Cont.rt,GSSubmit.keys,GSSubmit.rt,GSResponse.text,GuessSoundLoop.thisRepN,GuessSoundLoop.thisTrialN,GuessSoundLoop.thisN,GuessSoundLoop.thisIndex,GuessSoundLoop.ran,GS_File,GS_Type,ExitKey.keys,ExitKey.rt
space,0.949495,space,1.380125,3,1,0.36482,0,0,0,4,1,Headphone/t3_1.wav,3,5f4b8f646cc10e7481333ee4,61,2021-03-24_23h52.23.699,CombinedMST_OA,2020.2.10,Win32,60,,,,,,,,,,,,,,,,,,,,,,,,,,,,,,,,,,,,,,,,,,,,,,,,,,,,,,,,,,,,,,,,,,,,,,,,,,,,,,,,,,,,,,,,,,,,,,,,,,,,,,,,,,,,,,,,
,,,,1,1,0.752395,0,1,1,1,1,Headphone/t1_2.wav,1,5f4b8f646cc10e7481333ee4,61,2021-03-24_23h52.23.699,CombinedMST_OA,2020.2.10,Win32,60,,,,,,,,,,,,,,,,,,,,,,,,,,,,,,,,,,,,,,,,,,,,,,,,,,,,,,,,,,,,,,,,,,,,,,,,,,,,,,,,,,,,,,,,,,,,,,,,,,,,,,,,,,,,,,,,
,,,,1,1,0.357435,0,2,2,0,1,Headphone/t1_1.wav,1,5f4b8f646cc10e7481333ee4,61,2021-03-24_23h52.23.699,CombinedMST_OA,2020.2.10,Win32,60,,,,,,,,,,,,,,,,,,,,,,,,,,,,,,,,,,,,,,,,,,,,,,,,,,,,,,,,,,,,,,,,,,,,,,,,,,,,,,,,,,,,,,,,,,,,,,,,,,,,,,,,,,,,,,,,
,,,,2,1,0.61591,0,3,3,2,1,Headphone/t2_1.wav,2,5f4b8f646cc10e7481333ee4,61,2021-03-24_23h52.23.699,CombinedMST_OA,2020.2.10,Win32,60,,,,,,,,,,,,,,,,,,,,,,,,,,,,,,,,,,,,,,,,,,,,,,,,,,,,,,,,,,,,,,,,,,,,,,,,,,,,,,,,,,,,,,,,,,,,,,,,,,,,,,,,,,,,,,,,
,,,,2,1,0.440805,0,4,4,3,1,Headphone/t2_2.wav,2,5f4b8f646cc10e7481333ee4,61,2021-03-24_23h52.23.699,CombinedMST_OA,2020.2.10,Win32,60,,,,,,,,,,,,,,,,,,,,,,,,,,,,,,,,,,,,,,,,,,,,,,,,,,,,,,,,,,,,,,,,,,,,,,,,,,,,,,,,,,,,,,,,,,,,,,,,,,,,,,,,,,,,,,,,
,,,,3,1,0.56837,0,5,5,5,1,Headphone/t3_2.wav,3,5f4b8f646cc10e7481333ee4,61,2021-03-24_23h52.23.699,CombinedMST_OA,2020.2.10,Win32,60,,,,,,,,,,,,,,,,,,,,,,,,,,,,,,,,,,,,,,,,,,,,,,,,,,,,,,,,,,,,,,,,,,,,,,,,,,,,,,,,,,,,,,,,,,,,,,,,,,,,,,,,,,,,,,,,
,,,,,,,,,,,,,2,5f4b8f646cc10e7481333ee4,61,2021-03-24_23h52.23.699,CombinedMST_OA,2020.2.10,Win32,60,space,1.32861,space,1.144245,space,1.53313,space,2.77095,2,1,14.573715,0,0,0,0,1,Training/FO_YI_LAY.wav,NEW,,,,,,,,,,,,,,,,,,,,,,,,,,,,,,,,,,,,,,,,,,,,,,,,,,,,,,,,,,,,,,,,,,,,,,,,,,,,,,,,,,,,,,,,,,,,,,
,,,,,,,,,,,,,1,5f4b8f646cc10e7481333ee4,61,2021-03-24_23h52.23.699,CombinedMST_OA,2020.2.10,Win32,60,,,,,,,,,1,1,1.738125,0,1,1,1,1,Training/FO_YI_LAY.wav,OLD,,,,,,,,,,,,,,,,,,,,,,,,,,,,,,,,,,,,,,,,,,,,,,,,,,,,,,,,,,,,,,,,,,,,,,,,,,,,,,,,,,,,,,,,,,,,,,
,,,,,,,,,,,,,2,5f4b8f646cc10e7481333ee4,61,2021-03-24_23h52.23.699,CombinedMST_OA,2020.2.10,Win32,60,,,,,,,,,2,1,1.720165,0,2,2,2,1,Training/YO_BU_JAY.wav,NEW,,,,,,,,,,,,,,,,,,,,,,,,,,,,,,,,,,,,,,,,,,,,,,,,,,,,,,,,,,,,,,,,,,,,,,,,,,,,,,,,,,,,,,,,,,,,,,
,,,,,,,,,,,,,2,5f4b8f646cc10e7481333ee4,61,2021-03-24_23h52.23.699,CombinedMST_OA,2020.2.10,Win32,60,,,,,,,,,2,1,1.289995,0,3,3,3,1,Training/JAY_YO_BU.wav,SIMILAR,,,,,,,,,,,,,,,,,,,,,,,,,,,,,,,,,,,,,,,,,,,,,,,,,,,,,,,,,,,,,,,,,,,,,,,,,,,,,,,,,,,,,,,,,,,,,,
,,,,,,,,,,,,,1,5f4b8f646cc10e7481333ee4,61,2021-03-24_23h52.23.699,CombinedMST_OA,2020.2.10,Win32,60,,,,,,,,,1,1,3.892495,0,4,4,4,1,Training/FO_YI_LAY.wav,OLD,,,,,,,,,,,,,,,,,,,,,,,,,,,,,,,,,,,,,,,,,,,,,,,,,,,,,,,,,,,,,,,,,,,,,,,,,,,,,,,,,,,,,,,,,,,,,,
,,,,,,,,,,,,TestWords/SI_VAI_CHU.wav,,5f4b8f646cc10e7481333ee4,61,2021-03-24_23h52.23.699,CombinedMST_OA,2020.2.10,Win32,60,,,,,,,,,,,,,,,,,,,space,4.210875,2,1,1.28959,0,0,0,0,1,2,NEW,NEW,F,,,,,,,,,,,,,,,,,,,,,,,,,,,,,,,,,,,,,,,,,,,,,,,,,,,,,,,,,,,,,,,,,,,,,,,,,,,,,,,,
,,,,,,,,,,,,TestWords/HO_NAY_VA.wav,,5f4b8f646cc10e7481333ee4,61,2021-03-24_23h52.23.699,CombinedMST_OA,2020.2.10,Win32,60,,,,,,,,,,,,,,,,,,,,,2,1,0.53906,0,1,1,1,1,2,NEW,NEW,F,,,,,,,,,,,,,,,,,,,,,,,,,,,,,,,,,,,,,,,,,,,,,,,,,,,,,,,,,,,,,,,,,,,,,,,,,,,,,,,,
,,,,,,,,,,,,TestWords/KAI_LAY_TA.wav,,5f4b8f646cc10e7481333ee4,61,2021-03-24_23h52.23.699,CombinedMST_OA,2020.2.10,Win32,60,,,,,,,,,,,,,,,,,,,,,2,1,0.58732,0,2,2,2,1,2,NEW,NEW,F,,,,,,,,,,,,,,,,,,,,,,,,,,,,,,,,,,,,,,,,,,,,,,,,,,,,,,,,,,,,,,,,,,,,,,,,,,,,,,,,
,,,,,,,,,,,,TestWords/PAI_LU_WA.wav,,5f4b8f646cc10e7481333ee4,61,2021-03-24_23h52.23.699,CombinedMST_OA,2020.2.10,Win32,60,,,,,,,,,,,,,,,,,,,,,2,1,0.72378,0,3,3,3,1,2,NEW,NEW,F,,,,,,,,,,,,,,,,,,,,,,,,,,,,,,,,,,,,,,,,,,,,,,,,,,,,,,,,,,,,,,,,,,,,,,,,,,,,,,,,
,,,,,,,,,,,,TestWords/WAI_VU_NA.wav,,5f4b8f646cc10e7481333ee4,61,2021-03-24_23h52.23.699,CombinedMST_OA,2020.2.10,Win32,60,,,,,,,,,,,,,,,,,,,,,2,1,0.97235,0,4,4,4,1,2,NEW,NEW,F,,,,,,,,,,,,,,,,,,,,,,,,,,,,,,,,,,,,,,,,,,,,,,,,,,,,,,,,,,,,,,,,,,,,,,,,,,,,,,,,
,,,,,,,,,,,,TestWords/VAI_HO_LA.wav,,5f4b8f646cc10e7481333ee4,61,2021-03-24_23h52.23.699,CombinedMST_OA,2020.2.10,Win32,60,,,,,,,,,,,,,,,,,,,,,2,1,1.001475,0,5,5,5,1,2,NEW,NEW,F,,,,,,,,,,,,,,,,,,,,,,,,,,,,,,,,,,,,,,,,,,,,,,,,,,,,,,,,,,,,,,,,,,,,,,,,,,,,,,,,
,,,,,,,,,,,,TestWords/GU_CHAI_PI.wav,,5f4b8f646cc10e7481333ee4,61,2021-03-24_23h52.23.699,CombinedMST_OA,2020.2.10,Win32,60,,,,,,,,,,,,,,,,,,,,,2,1,1.53969,0,6,6,6,1,2,NEW,NEW,F,,,,,,,,,,,,,,,,,,,,,,,,,,,,,,,,,,,,,,,,,,,,,,,,,,,,,,,,,,,,,,,,,,,,,,,,,,,,,,,,
,,,,,,,,,,,,TestWords/KO_SU_FAI.wav,,5f4b8f646cc10e7481333ee4,61,2021-03-24_23h52.23.699,CombinedMST_OA,2020.2.10,Win32,60,,,,,,,,,,,,,,,,,,,,,2,1,0.850505,0,7,7,7,1,2,NEW,NEW,F,,,,,,,,,,,,,,,,,,,,,,,,,,,,,,,,,,,,,,,,,,,,,,,,,,,,,,,,,,,,,,,,,,,,,,,,,,,,,,,,
,,,,,,,,,,,,TestWords/KAI_LAY_TA.wav,,5f4b8f646cc10e7481333ee4,61,2021-03-24_23h52.23.699,CombinedMST_OA,2020.2.10,Win32,60,,,,,,,,,,,,,,,,,,,,,1,1,1.086955,0,8,8,8,1,1,OLD,OLD,F,,,,,,,,,,,,,,,,,,,,,,,,,,,,,,,,,,,,,,,,,,,,,,,,,,,,,,,,,,,,,,,,,,,,,,,,,,,,,,,,
,,,,,,,,,,,,TestWords/BA_KAY_LI.wav,,5f4b8f646cc10e7481333ee4,61,2021-03-24_23h52.23.699,CombinedMST_OA,2020.2.10,Win32,60,,,,,,,,,,,,,,,,,,,,,2,1,0.5775,0,9,9,9,1,2,NEW,NEW,F,,,,,,,,,,,,,,,,,,,,,,,,,,,,,,,,,,,,,,,,,,,,,,,,,,,,,,,,,,,,,,,,,,,,,,,,,,,,,,,,
,,,,,,,,,,,,TestWords/DAI_RU_CHI.wav,,5f4b8f646cc10e7481333ee4,61,2021-03-24_23h52.23.699,CombinedMST_OA,2020.2.10,Win32,60,,,,,,,,,,,,,,,,,,,,,1,0,1.39316,0,10,10,10,1,2,NEW,NEW,F,,,,,,,,,,,,,,,,,,,,,,,,,,,,,,,,,,,,,,,,,,,,,,,,,,,,,,,,,,,,,,,,,,,,,,,,,,,,,,,,
,,,,,,,,,,,,TestWords/WAI_NA_VU.wav,,5f4b8f646cc10e7481333ee4,61,2021-03-24_23h52.23.699,CombinedMST_OA,2020.2.10,Win32,60,,,,,,,,,,,,,,,,,,,,,2,1,2.8471,0,11,11,11,1,2,NEW,SIMILAR,F,,,,,,,,,,,,,,,,,,,,,,,,,,,,,,,,,,,,,,,,,,,,,,,,,,,,,,,,,,,,,,,,,,,,,,,,,,,,,,,,
,,,,,,,,,,,,TestWords/DA_CHU_VAI.wav,,5f4b8f646cc10e7481333ee4,61,2021-03-24_23h52.23.699,CombinedMST_OA,2020.2.10,Win32,60,,,,,,,,,,,,,,,,,,,,,1,0,2.77391,0,12,12,12,1,2,NEW,NEW,F,,,,,,,,,,,,,,,,,,,,,,,,,,,,,,,,,,,,,,,,,,,,,,,,,,,,,,,,,,,,,,,,,,,,,,,,,,,,,,,,
,,,,,,,,,,,,TestWords/KAI_LAY_TA.wav,,5f4b8f646cc10e7481333ee4,61,2021-03-24_23h52.23.699,CombinedMST_OA,2020.2.10,Win32,60,,,,,,,,,,,,,,,,,,,,,2,0,0.75252,0,13,13,13,1,1,OLD,OLD,F,,,,,,,,,,,,,,,,,,,,,,,,,,,,,,,,,,,,,,,,,,,,,,,,,,,,,,,,,,,,,,,,,,,,,,,,,,,,,,,,
,,,,,,,,,,,,TestWords/KO_SU_FAI.wav,,5f4b8f646cc10e7481333ee4,61,2021-03-24_23h52.23.699,CombinedMST_OA,2020.2.10,Win32,60,,,,,,,,,,,,,,,,,,,,,2,0,0.7811,0,14,14,14,1,1,OLD,OLD,F,,,,,,,,,,,,,,,,,,,,,,,,,,,,,,,,,,,,,,,,,,,,,,,,,,,,,,,,,,,,,,,,,,,,,,,,,,,,,,,,
,,,,,,,,,,,,TestWords/VU_NA_WAI.wav,,5f4b8f646cc10e7481333ee4,61,2021-03-24_23h52.23.699,CombinedMST_OA,2020.2.10,Win32,60,,,,,,,,,,,,,,,,,,,,,1,0,0.686895,0,15,15,15,1,2,NEW,SIMILAR,F,,,,,,,,,,,,,,,,,,,,,,,,,,,,,,,,,,,,,,,,,,,,,,,,,,,,,,,,,,,,,,,,,,,,,,,,,,,,,,,,
,,,,,,,,,,,,TestWords/DAI_RU_CHI.wav,,5f4b8f646cc10e7481333ee4,61,2021-03-24_23h52.23.699,CombinedMST_OA,2020.2.10,Win32,60,,,,,,,,,,,,,,,,,,,,,1,1,0.999525,0,16,16,16,1,1,OLD,OLD,F,,,,,,,,,,,,,,,,,,,,,,,,,,,,,,,,,,,,,,,,,,,,,,,,,,,,,,,,,,,,,,,,,,,,,,,,,,,,,,,,
,,,,,,,,,,,,TestWords/KAY_LI_BA.wav,,5f4b8f646cc10e7481333ee4,61,2021-03-24_23h52.23.699,CombinedMST_OA,2020.2.10,Win32,60,,,,,,,,,,,,,,,,,,,,,1,0,0.521285,0,17,17,17,1,2,NEW,SIMILAR,F,,,,,,,,,,,,,,,,,,,,,,,,,,,,,,,,,,,,,,,,,,,,,,,,,,,,,,,,,,,,,,,,,,,,,,,,,,,,,,,,
,,,,,,,,,,,,TestWords/RAY_PA_TI.wav,,5f4b8f646cc10e7481333ee4,61,2021-03-24_23h52.23.699,CombinedMST_OA,2020.2.10,Win32,60,,,,,,,,,,,,,,,,,,,,,2,1,0.96998,0,18,18,18,1,2,NEW,NEW,F,,,,,,,,,,,,,,,,,,,,,,,,,,,,,,,,,,,,,,,,,,,,,,,,,,,,,,,,,,,,,,,,,,,,,,,,,,,,,,,,
,,,,,,,,,,,,TestWords/KAI_LAY_TA.wav,,5f4b8f646cc10e7481333ee4,61,2021-03-24_23h52.23.699,CombinedMST_OA,2020.2.10,Win32,60,,,,,,,,,,,,,,,,,,,,,1,1,0.491335,0,19,19,19,1,1,OLD,OLD,F,,,,,,,,,,,,,,,,,,,,,,,,,,,,,,,,,,,,,,,,,,,,,,,,,,,,,,,,,,,,,,,,,,,,,,,,,,,,,,,,
,,,,,,,,,,,,TestWords/VU_WAI_NA.wav,,5f4b8f646cc10e7481333ee4,61,2021-03-24_23h52.23.699,CombinedMST_OA,2020.2.10,Win32,60,,,,,,,,,,,,,,,,,,,,,2,1,0.473875,0,20,20,20,1,2,NEW,SIMILAR,F,,,,,,,,,,,,,,,,,,,,,,,,,,,,,,,,,,,,,,,,,,,,,,,,,,,,,,,,,,,,,,,,,,,,,,,,,,,,,,,,
,,,,,,,,,,,,TestWords/KO_SU_FAI.wav,,5f4b8f646cc10e7481333ee4,61,2021-03-24_23h52.23.699,CombinedMST_OA,2020.2.10,Win32,60,,,,,,,,,,,,,,,,,,,,,2,0,1.16213,0,21,21,21,1,1,OLD,OLD,F,,,,,,,,,,,,,,,,,,,,,,,,,,,,,,,,,,,,,,,,,,,,,,,,,,,,,,,,,,,,,,,,,,,,,,,,,,,,,,,,
,,,,,,,,,,,,TestWords/HI_NAY_VA.wav,,5f4b8f646cc10e7481333ee4,61,2021-03-24_23h52.23.699,CombinedMST_OA,2020.2.10,Win32,60,,,,,,,,,,,,,,,,,,,,,1,0,1.278615,0,22,22,22,1,2,NEW,NEW,F,,,,,,,,,,,,,,,,,,,,,,,,,,,,,,,,,,,,,,,,,,,,,,,,,,,,,,,,,,,,,,,,,,,,,,,,,,,,,,,,
,,,,,,,,,,,,TestWords/KAI_LAY_TA.wav,,5f4b8f646cc10e7481333ee4,61,2021-03-24_23h52.23.699,CombinedMST_OA,2020.2.10,Win32,60,,,,,,,,,,,,,,,,,,,,,1,1,0.669505,0,23,23,23,1,1,OLD,OLD,F,,,,,,,,,,,,,,,,,,,,,,,,,,,,,,,,,,,,,,,,,,,,,,,,,,,,,,,,,,,,,,,,,,,,,,,,,,,,,,,,
,,,,,,,,,,,,TestWords/RAY_PA_TI.wav,,5f4b8f646cc10e7481333ee4,61,2021-03-24_23h52.23.699,CombinedMST_OA,2020.2.10,Win32,60,,,,,,,,,,,,,,,,,,,,,1,1,1.25319,0,24,24,24,1,1,OLD,OLD,F,,,,,,,,,,,,,,,,,,,,,,,,,,,,,,,,,,,,,,,,,,,,,,,,,,,,,,,,,,,,,,,,,,,,,,,,,,,,,,,,
,,,,,,,,,,,,TestWords/DAI_RU_CHI.wav,,5f4b8f646cc10e7481333ee4,61,2021-03-24_23h52.23.699,CombinedMST_OA,2020.2.10,Win32,60,,,,,,,,,,,,,,,,,,,,,1,1,0.95813,0,25,25,25,1,1,OLD,OLD,F,,,,,,,,,,,,,,,,,,,,,,,,,,,,,,,,,,,,,,,,,,,,,,,,,,,,,,,,,,,,,,,,,,,,,,,,,,,,,,,,
,,,,,,,,,,,,TestWords/NA_VU_WAI.wav,,5f4b8f646cc10e7481333ee4,61,2021-03-24_23h52.23.699,CombinedMST_OA,2020.2.10,Win32,60,,,,,,,,,,,,,,,,,,,,,2,1,2.00767,0,26,26,26,1,2,NEW,SIMILAR,F,,,,,,,,,,,,,,,,,,,,,,,,,,,,,,,,,,,,,,,,,,,,,,,,,,,,,,,,,,,,,,,,,,,,,,,,,,,,,,,,
,,,,,,,,,,,,TestWords/KAY_BA_LI.wav,,5f4b8f646cc10e7481333ee4,61,2021-03-24_23h52.23.699,CombinedMST_OA,2020.2.10,Win32,60,,,,,,,,,,,,,,,,,,,,,1,0,0.600305,0,27,27,27,1,2,NEW,SIMILAR,F,,,,,,,,,,,,,,,,,,,,,,,,,,,,,,,,,,,,,,,,,,,,,,,,,,,,,,,,,,,,,,,,,,,,,,,,,,,,,,,,
,,,,,,,,,,,,TestWords/KO_SU_FAI.wav,,5f4b8f646cc10e7481333ee4,61,2021-03-24_23h52.23.699,CombinedMST_OA,2020.2.10,Win32,60,,,,,,,,,,,,,,,,,,,,,2,0,0.68896,0,28,28,28,1,1,OLD,OLD,F,,,,,,,,,,,,,,,,,,,,,,,,,,,,,,,,,,,,,,,,,,,,,,,,,,,,,,,,,,,,,,,,,,,,,,,,,,,,,,,,
,,,,,,,,,,,,TestWords/KAI_LAY_TA.wav,,5f4b8f646cc10e7481333ee4,61,2021-03-24_23h52.23.699,CombinedMST_OA,2020.2.10,Win32,60,,,,,,,,,,,,,,,,,,,,,1,1,0.913085,0,29,29,29,1,1,OLD,OLD,F,,,,,,,,,,,,,,,,,,,,,,,,,,,,,,,,,,,,,,,,,,,,,,,,,,,,,,,,,,,,,,,,,,,,,,,,,,,,,,,,
,,,,,,,,,,,,TestWords/RAY_PA_TI.wav,,5f4b8f646cc10e7481333ee4,61,2021-03-24_23h52.23.699,CombinedMST_OA,2020.2.10,Win32,60,,,,,,,,,,,,,,,,,,,,,1,1,1.03713,0,30,30,30,1,1,OLD,OLD,F,,,,,,,,,,,,,,,,,,,,,,,,,,,,,,,,,,,,,,,,,,,,,,,,,,,,,,,,,,,,,,,,,,,,,,,,,,,,,,,,
,,,,,,,,,,,,TestWords/NU_CHAY_SO.wav,,5f4b8f646cc10e7481333ee4,61,2021-03-24_23h52.23.699,CombinedMST_OA,2020.2.10,Win32,60,,,,,,,,,,,,,,,,,,,,,2,1,0.599905,0,31,31,31,1,2,NEW,NEW,F,,,,,,,,,,,,,,,,,,,,,,,,,,,,,,,,,,,,,,,,,,,,,,,,,,,,,,,,,,,,,,,,,,,,,,,,,,,,,,,,
,,,,,,,,,,,,TestWords/DAI_RU_CHI.wav,,5f4b8f646cc10e7481333ee4,61,2021-03-24_23h52.23.699,CombinedMST_OA,2020.2.10,Win32,60,,,,,,,,,,,,,,,,,,,,,1,1,0.988325,0,32,32,32,1,1,OLD,OLD,F,,,,,,,,,,,,,,,,,,,,,,,,,,,,,,,,,,,,,,,,,,,,,,,,,,,,,,,,,,,,,,,,,,,,,,,,,,,,,,,,
,,,,,,,,,,,,TestWords/NA_WAI_VU.wav,,5f4b8f646cc10e7481333ee4,61,2021-03-24_23h52.23.699,CombinedMST_OA,2020.2.10,Win32,60,,,,,,,,,,,,,,,,,,,,,1,0,3.056485,0,33,33,33,1,2,NEW,SIMILAR,F,,,,,,,,,,,,,,,,,,,,,,,,,,,,,,,,,,,,,,,,,,,,,,,,,,,,,,,,,,,,,,,,,,,,,,,,,,,,,,,,
,,,,,,,,,,,,TestWords/GA_MU_ZI.wav,,5f4b8f646cc10e7481333ee4,61,2021-03-24_23h52.23.699,CombinedMST_OA,2020.2.10,Win32,60,,,,,,,,,,,,,,,,,,,,,1,0,2.41485,0,34,34,34,1,2,NEW,NEW,F,,,,,,,,,,,,,,,,,,,,,,,,,,,,,,,,,,,,,,,,,,,,,,,,,,,,,,,,,,,,,,,,,,,,,,,,,,,,,,,,
,,,,,,,,,,,,TestWords/KAI_LAY_TA.wav,,5f4b8f646cc10e7481333ee4,61,2021-03-24_23h52.23.699,CombinedMST_OA,2020.2.10,Win32,60,,,,,,,,,,,,,,,,,,,,,1,1,0.98572,0,35,35,35,1,1,OLD,OLD,F,,,,,,,,,,,,,,,,,,,,,,,,,,,,,,,,,,,,,,,,,,,,,,,,,,,,,,,,,,,,,,,,,,,,,,,,,,,,,,,,
,,,,,,,,,,,,TestWords/LI_BA_KAY.wav,,5f4b8f646cc10e7481333ee4,61,2021-03-24_23h52.23.699,CombinedMST_OA,2020.2.10,Win32,60,,,,,,,,,,,,,,,,,,,,,2,1,1.392485,0,36,36,36,1,2,NEW,SIMILAR,F,,,,,,,,,,,,,,,,,,,,,,,,,,,,,,,,,,,,,,,,,,,,,,,,,,,,,,,,,,,,,,,,,,,,,,,,,,,,,,,,
,,,,,,,,,,,,TestWords/KO_SU_FAI.wav,,5f4b8f646cc10e7481333ee4,61,2021-03-24_23h52.23.699,CombinedMST_OA,2020.2.10,Win32,60,,,,,,,,,,,,,,,,,,,,,1,1,0.97505,0,37,37,37,1,1,OLD,OLD,F,,,,,,,,,,,,,,,,,,,,,,,,,,,,,,,,,,,,,,,,,,,,,,,,,,,,,,,,,,,,,,,,,,,,,,,,,,,,,,,,
,,,,,,,,,,,,TestWords/RAY_PA_TI.wav,,5f4b8f646cc10e7481333ee4,61,2021-03-24_23h52.23.699,CombinedMST_OA,2020.2.10,Win32,60,,,,,,,,,,,,,,,,,,,,,1,1,0.610415,0,38,38,38,1,1,OLD,OLD,F,,,,,,,,,,,,,,,,,,,,,,,,,,,,,,,,,,,,,,,,,,,,,,,,,,,,,,,,,,,,,,,,,,,,,,,,,,,,,,,,
,,,,,,,,,,,,TestWords/TAI_SA_GI.wav,,5f4b8f646cc10e7481333ee4,61,2021-03-24_23h52.23.699,CombinedMST_OA,2020.2.10,Win32,60,,,,,,,,,,,,,,,,,,,,,2,1,0.55407,0,39,39,39,1,2,NEW,NEW,F,,,,,,,,,,,,,,,,,,,,,,,,,,,,,,,,,,,,,,,,,,,,,,,,,,,,,,,,,,,,,,,,,,,,,,,,,,,,,,,,
,,,,,,,,,,,,TestWords/DAI_RU_CHI.wav,,5f4b8f646cc10e7481333ee4,61,2021-03-24_23h52.23.699,CombinedMST_OA,2020.2.10,Win32,60,,,,,,,,,,,,,,,,,,,,,1,1,0.971825,0,40,40,40,1,1,OLD,OLD,F,,,,,,,,,,,,,,,,,,,,,,,,,,,,,,,,,,,,,,,,,,,,,,,,,,,,,,,,,,,,,,,,,,,,,,,,,,,,,,,,
,,,,,,,,,,,,TestWords/GA_MU_ZI.wav,,5f4b8f646cc10e7481333ee4,61,2021-03-24_23h52.23.699,CombinedMST_OA,2020.2.10,Win32,60,,,,,,,,,,,,,,,,,,,,,2,0,0.77096,0,41,41,41,1,1,OLD,OLD,F,,,,,,,,,,,,,,,,,,,,,,,,,,,,,,,,,,,,,,,,,,,,,,,,,,,,,,,,,,,,,,,,,,,,,,,,,,,,,,,,
,,,,,,,,,,,,TestWords/KAI_LAY_TA.wav,,5f4b8f646cc10e7481333ee4,61,2021-03-24_23h52.23.699,CombinedMST_OA,2020.2.10,Win32,60,,,,,,,,,,,,,,,,,,,,,1,1,0.38567,0,42,42,42,1,1,OLD,OLD,F,,,,,,,,,,,,,,,,,,,,,,,,,,,,,,,,,,,,,,,,,,,,,,,,,,,,,,,,,,,,,,,,,,,,,,,,,,,,,,,,
,,,,,,,,,,,,TestWords/GI_SA_TAI.wav,,5f4b8f646cc10e7481333ee4,61,2021-03-24_23h52.23.699,CombinedMST_OA,2020.2.10,Win32,60,,,,,,,,,,,,,,,,,,,,,2,1,0.3531,0,43,43,43,1,2,NEW,SIMILAR,F,,,,,,,,,,,,,,,,,,,,,,,,,,,,,,,,,,,,,,,,,,,,,,,,,,,,,,,,,,,,,,,,,,,,,,,,,,,,,,,,
,,,,,,,,,,,,TestWords/BA_LI_KAY.wav,,5f4b8f646cc10e7481333ee4,61,2021-03-24_23h52.23.699,CombinedMST_OA,2020.2.10,Win32,60,,,,,,,,,,,,,,,,,,,,,1,0,0.86438,0,44,44,44,1,2,NEW,SIMILAR,F,,,,,,,,,,,,,,,,,,,,,,,,,,,,,,,,,,,,,,,,,,,,,,,,,,,,,,,,,,,,,,,,,,,,,,,,,,,,,,,,
,,,,,,,,,,,,TestWords/KO_SU_FAI.wav,,5f4b8f646cc10e7481333ee4,61,2021-03-24_23h52.23.699,CombinedMST_OA,2020.2.10,Win32,60,,,,,,,,,,,,,,,,,,,,,1,1,0.87059,0,45,45,45,1,1,OLD,OLD,F,,,,,,,,,,,,,,,,,,,,,,,,,,,,,,,,,,,,,,,,,,,,,,,,,,,,,,,,,,,,,,,,,,,,,,,,,,,,,,,,
,,,,,,,,,,,,TestWords/RAY_PA_TI.wav,,5f4b8f646cc10e7481333ee4,61,2021-03-24_23h52.23.699,CombinedMST_OA,2020.2.10,Win32,60,,,,,,,,,,,,,,,,,,,,,1,1,0.669965,0,46,46,46,1,1,OLD,OLD,F,,,,,,,,,,,,,,,,,,,,,,,,,,,,,,,,,,,,,,,,,,,,,,,,,,,,,,,,,,,,,,,,,,,,,,,,,,,,,,,,
,,,,,,,,,,,,TestWords/GA_MU_ZI.wav,,5f4b8f646cc10e7481333ee4,61,2021-03-24_23h52.23.699,CombinedMST_OA,2020.2.10,Win32,60,,,,,,,,,,,,,,,,,,,,,1,1,0.418095,0,47,47,47,1,1,OLD,OLD,F,,,,,,,,,,,,,,,,,,,,,,,,,,,,,,,,,,,,,,,,,,,,,,,,,,,,,,,,,,,,,,,,,,,,,,,,,,,,,,,,
,,,,,,,,,,,,TestWords/LU_HAI_BO.wav,,5f4b8f646cc10e7481333ee4,61,2021-03-24_23h52.23.699,CombinedMST_OA,2020.2.10,Win32,60,,,,,,,,,,,,,,,,,,,,,2,1,0.67326,0,48,48,48,1,2,NEW,NEW,F,,,,,,,,,,,,,,,,,,,,,,,,,,,,,,,,,,,,,,,,,,,,,,,,,,,,,,,,,,,,,,,,,,,,,,,,,,,,,,,,
,,,,,,,,,,,,TestWords/KAI_LAY_TA.wav,,5f4b8f646cc10e7481333ee4,61,2021-03-24_23h52.23.699,CombinedMST_OA,2020.2.10,Win32,60,,,,,,,,,,,,,,,,,,,,,1,1,0.571055,0,49,49,49,1,1,OLD,OLD,F,,,,,,,,,,,,,,,,,,,,,,,,,,,,,,,,,,,,,,,,,,,,,,,,,,,,,,,,,,,,,,,,,,,,,,,,,,,,,,,,
,,,,,,,,,,,,TestWords/DAI_RU_CHI.wav,,5f4b8f646cc10e7481333ee4,61,2021-03-24_23h52.23.699,CombinedMST_OA,2020.2.10,Win32,60,,,,,,,,,,,,,,,,,,,,,1,1,1.030445,0,50,50,50,1,1,OLD,OLD,F,,,,,,,,,,,,,,,,,,,,,,,,,,,,,,,,,,,,,,,,,,,,,,,,,,,,,,,,,,,,,,,,,,,,,,,,,,,,,,,,
,,,,,,,,,,,,TestWords/GI_TAI_SA.wav,,5f4b8f646cc10e7481333ee4,61,2021-03-24_23h52.23.699,CombinedMST_OA,2020.2.10,Win32,60,,,,,,,,,,,,,,,,,,,,,1,0,0.967355,0,51,51,51,1,2,NEW,SIMILAR,F,,,,,,,,,,,,,,,,,,,,,,,,,,,,,,,,,,,,,,,,,,,,,,,,,,,,,,,,,,,,,,,,,,,,,,,,,,,,,,,,
,,,,,,,,,,,,TestWords/LI_KAY_BA.wav,,5f4b8f646cc10e7481333ee4,61,2021-03-24_23h52.23.699,CombinedMST_OA,2020.2.10,Win32,60,,,,,,,,,,,,,,,,,,,,,1,0,0.45992,0,52,52,52,1,2,NEW,SIMILAR,F,,,,,,,,,,,,,,,,,,,,,,,,,,,,,,,,,,,,,,,,,,,,,,,,,,,,,,,,,,,,,,,,,,,,,,,,,,,,,,,,
,,,,,,,,,,,,TestWords/RAY_PA_TI.wav,,5f4b8f646cc10e7481333ee4,61,2021-03-24_23h52.23.699,CombinedMST_OA,2020.2.10,Win32,60,,,,,,,,,,,,,,,,,,,,,1,1,0.819795,0,53,53,53,1,1,OLD,OLD,F,,,,,,,,,,,,,,,,,,,,,,,,,,,,,,,,,,,,,,,,,,,,,,,,,,,,,,,,,,,,,,,,,,,,,,,,,,,,,,,,
,,,,,,,,,,,,TestWords/KO_SU_FAI.wav,,5f4b8f646cc10e7481333ee4,61,2021-03-24_23h52.23.699,CombinedMST_OA,2020.2.10,Win32,60,,,,,,,,,,,,,,,,,,,,,2,0,1.793805,0,54,54,54,1,1,OLD,OLD,F,,,,,,,,,,,,,,,,,,,,,,,,,,,,,,,,,,,,,,,,,,,,,,,,,,,,,,,,,,,,,,,,,,,,,,,,,,,,,,,,
,,,,,,,,,,,,TestWords/DAY_PU_MO.wav,,5f4b8f646cc10e7481333ee4,61,2021-03-24_23h52.23.699,CombinedMST_OA,2020.2.10,Win32,60,,,,,,,,,,,,,,,,,,,,,2,1,0.582865,0,55,55,55,1,2,NEW,NEW,F,,,,,,,,,,,,,,,,,,,,,,,,,,,,,,,,,,,,,,,,,,,,,,,,,,,,,,,,,,,,,,,,,,,,,,,,,,,,,,,,
,,,,,,,,,,,,TestWords/KAI_LAY_TA.wav,,5f4b8f646cc10e7481333ee4,61,2021-03-24_23h52.23.699,CombinedMST_OA,2020.2.10,Win32,60,,,,,,,,,,,,,,,,,,,,,1,1,0.25121,0,56,56,56,1,1,OLD,OLD,F,,,,,,,,,,,,,,,,,,,,,,,,,,,,,,,,,,,,,,,,,,,,,,,,,,,,,,,,,,,,,,,,,,,,,,,,,,,,,,,,
,,,,,,,,,,,,TestWords/GA_MU_ZI.wav,,5f4b8f646cc10e7481333ee4,61,2021-03-24_23h52.23.699,CombinedMST_OA,2020.2.10,Win32,60,,,,,,,,,,,,,,,,,,,,,1,1,0.886785,0,57,57,57,1,1,OLD,OLD,F,,,,,,,,,,,,,,,,,,,,,,,,,,,,,,,,,,,,,,,,,,,,,,,,,,,,,,,,,,,,,,,,,,,,,,,,,,,,,,,,
,,,,,,,,,,,,TestWords/CHU_LA_PAY.wav,,5f4b8f646cc10e7481333ee4,61,2021-03-24_23h52.23.699,CombinedMST_OA,2020.2.10,Win32,60,,,,,,,,,,,,,,,,,,,,,1,0,1.28757,0,58,58,58,1,2,NEW,NEW,F,,,,,,,,,,,,,,,,,,,,,,,,,,,,,,,,,,,,,,,,,,,,,,,,,,,,,,,,,,,,,,,,,,,,,,,,,,,,,,,,
,,,,,,,,,,,,TestWords/DAI_RU_CHI.wav,,5f4b8f646cc10e7481333ee4,61,2021-03-24_23h52.23.699,CombinedMST_OA,2020.2.10,Win32,60,,,,,,,,,,,,,,,,,,,,,1,1,0.536585,0,59,59,59,1,1,OLD,OLD,F,,,,,,,,,,,,,,,,,,,,,,,,,,,,,,,,,,,,,,,,,,,,,,,,,,,,,,,,,,,,,,,,,,,,,,,,,,,,,,,,
,,,,,,,,,,,,TestWords/SA_TAI_GI.wav,,5f4b8f646cc10e7481333ee4,61,2021-03-24_23h52.23.699,CombinedMST_OA,2020.2.10,Win32,60,,,,,,,,,,,,,,,,,,,,,1,0,1.24277,0,60,60,60,1,2,NEW,SIMILAR,F,,,,,,,,,,,,,,,,,,,,,,,,,,,,,,,,,,,,,,,,,,,,,,,,,,,,,,,,,,,,,,,,,,,,,,,,,,,,,,,,
,,,,,,,,,,,,TestWords/RAY_PA_TI.wav,,5f4b8f646cc10e7481333ee4,61,2021-03-24_23h52.23.699,CombinedMST_OA,2020.2.10,Win32,60,,,,,,,,,,,,,,,,,,,,,1,1,0.285,0,61,61,61,1,1,OLD,OLD,F,,,,,,,,,,,,,,,,,,,,,,,,,,,,,,,,,,,,,,,,,,,,,,,,,,,,,,,,,,,,,,,,,,,,,,,,,,,,,,,,
,,,,,,,,,,,,TestWords/KAI_LAY_TA.wav,,5f4b8f646cc10e7481333ee4,61,2021-03-24_23h52.23.699,CombinedMST_OA,2020.2.10,Win32,60,,,,,,,,,,,,,,,,,,,,,1,1,0.22021,0,62,62,62,1,1,OLD,OLD,F,,,,,,,,,,,,,,,,,,,,,,,,,,,,,,,,,,,,,,,,,,,,,,,,,,,,,,,,,,,,,,,,,,,,,,,,,,,,,,,,
,,,,,,,,,,,,TestWords/FU_RAI_ZO.wav,,5f4b8f646cc10e7481333ee4,61,2021-03-24_23h52.23.699,CombinedMST_OA,2020.2.10,Win32,60,,,,,,,,,,,,,,,,,,,,,2,1,0.444565,0,63,63,63,1,2,NEW,NEW,F,,,,,,,,,,,,,,,,,,,,,,,,,,,,,,,,,,,,,,,,,,,,,,,,,,,,,,,,,,,,,,,,,,,,,,,,,,,,,,,,
,,,,,,,,,,,,TestWords/KO_SU_FAI.wav,,5f4b8f646cc10e7481333ee4,61,2021-03-24_23h52.23.699,CombinedMST_OA,2020.2.10,Win32,60,,,,,,,,,,,,,,,,,,,,,2,0,0.68922,0,64,64,64,1,1,OLD,OLD,F,,,,,,,,,,,,,,,,,,,,,,,,,,,,,,,,,,,,,,,,,,,,,,,,,,,,,,,,,,,,,,,,,,,,,,,,,,,,,,,,
,,,,,,,,,,,,TestWords/GA_MU_ZI.wav,,5f4b8f646cc10e7481333ee4,61,2021-03-24_23h52.23.699,CombinedMST_OA,2020.2.10,Win32,60,,,,,,,,,,,,,,,,,,,,,1,1,0.689765,0,65,65,65,1,1,OLD,OLD,F,,,,,,,,,,,,,,,,,,,,,,,,,,,,,,,,,,,,,,,,,,,,,,,,,,,,,,,,,,,,,,,,,,,,,,,,,,,,,,,,
,,,,,,,,,,,,TestWords/DAY_MO_PU.wav,,5f4b8f646cc10e7481333ee4,61,2021-03-24_23h52.23.699,CombinedMST_OA,2020.2.10,Win32,60,,,,,,,,,,,,,,,,,,,,,1,0,1.95445,0,66,66,66,1,2,NEW,SIMILAR,F,,,,,,,,,,,,,,,,,,,,,,,,,,,,,,,,,,,,,,,,,,,,,,,,,,,,,,,,,,,,,,,,,,,,,,,,,,,,,,,,
,,,,,,,,,,,,TestWords/DAI_RU_CHI.wav,,5f4b8f646cc10e7481333ee4,61,2021-03-24_23h52.23.699,CombinedMST_OA,2020.2.10,Win32,60,,,,,,,,,,,,,,,,,,,,,1,1,0.26911,0,67,67,67,1,1,OLD,OLD,F,,,,,,,,,,,,,,,,,,,,,,,,,,,,,,,,,,,,,,,,,,,,,,,,,,,,,,,,,,,,,,,,,,,,,,,,,,,,,,,,
,,,,,,,,,,,,TestWords/FI_GU_CHA.wav,,5f4b8f646cc10e7481333ee4,61,2021-03-24_23h52.23.699,CombinedMST_OA,2020.2.10,Win32,60,,,,,,,,,,,,,,,,,,,,,2,1,0.47684,0,68,68,68,1,2,NEW,NEW,F,,,,,,,,,,,,,,,,,,,,,,,,,,,,,,,,,,,,,,,,,,,,,,,,,,,,,,,,,,,,,,,,,,,,,,,,,,,,,,,,
,,,,,,,,,,,,TestWords/GA_MU_ZI.wav,,5f4b8f646cc10e7481333ee4,61,2021-03-24_23h52.23.699,CombinedMST_OA,2020.2.10,Win32,60,,,,,,,,,,,,,,,,,,,,,1,1,0.302195,0,69,69,69,1,1,OLD,OLD,F,,,,,,,,,,,,,,,,,,,,,,,,,,,,,,,,,,,,,,,,,,,,,,,,,,,,,,,,,,,,,,,,,,,,,,,,,,,,,,,,
,,,,,,,,,,,,TestWords/RAY_PA_TI.wav,,5f4b8f646cc10e7481333ee4,61,2021-03-24_23h52.23.699,CombinedMST_OA,2020.2.10,Win32,60,,,,,,,,,,,,,,,,,,,,,1,1,0.38994,0,70,70,70,1,1,OLD,OLD,F,,,,,,,,,,,,,,,,,,,,,,,,,,,,,,,,,,,,,,,,,,,,,,,,,,,,,,,,,,,,,,,,,,,,,,,,,,,,,,,,
,,,,,,,,,,,,TestWords/SA_GI_TAI.wav,,5f4b8f646cc10e7481333ee4,61,2021-03-24_23h52.23.699,CombinedMST_OA,2020.2.10,Win32,60,,,,,,,,,,,,,,,,,,,,,1,0,0.41597,0,71,71,71,1,2,NEW,SIMILAR,F,,,,,,,,,,,,,,,,,,,,,,,,,,,,,,,,,,,,,,,,,,,,,,,,,,,,,,,,,,,,,,,,,,,,,,,,,,,,,,,,
,,,,,,,,,,,,TestWords/MO_DAY_PU.wav,,5f4b8f646cc10e7481333ee4,61,2021-03-24_23h52.23.699,CombinedMST_OA,2020.2.10,Win32,60,,,,,,,,,,,,,,,,,,,,,2,1,0.23564,0,72,72,72,1,2,NEW,SIMILAR,F,,,,,,,,,,,,,,,,,,,,,,,,,,,,,,,,,,,,,,,,,,,,,,,,,,,,,,,,,,,,,,,,,,,,,,,,,,,,,,,,
,,,,,,,,,,,,TestWords/KO_SU_FAI.wav,,5f4b8f646cc10e7481333ee4,61,2021-03-24_23h52.23.699,CombinedMST_OA,2020.2.10,Win32,60,,,,,,,,,,,,,,,,,,,,,1,1,0.73163,0,73,73,73,1,1,OLD,OLD,F,,,,,,,,,,,,,,,,,,,,,,,,,,,,,,,,,,,,,,,,,,,,,,,,,,,,,,,,,,,,,,,,,,,,,,,,,,,,,,,,
,,,,,,,,,,,,TestWords/RAI_ZO_FU.wav,,5f4b8f646cc10e7481333ee4,61,2021-03-24_23h52.23.699,CombinedMST_OA,2020.2.10,Win32,60,,,,,,,,,,,,,,,,,,,,,2,1,0.337075,0,74,74,74,1,2,NEW,SIMILAR,F,,,,,,,,,,,,,,,,,,,,,,,,,,,,,,,,,,,,,,,,,,,,,,,,,,,,,,,,,,,,,,,,,,,,,,,,,,,,,,,,
,,,,,,,,,,,,TestWords/GA_MU_ZI.wav,,5f4b8f646cc10e7481333ee4,61,2021-03-24_23h52.23.699,CombinedMST_OA,2020.2.10,Win32,60,,,,,,,,,,,,,,,,,,,,,1,1,0.134285,0,75,75,75,1,1,OLD,OLD,F,,,,,,,,,,,,,,,,,,,,,,,,,,,,,,,,,,,,,,,,,,,,,,,,,,,,,,,,,,,,,,,,,,,,,,,,,,,,,,,,
,,,,,,,,,,,,TestWords/DAI_RU_CHI.wav,,5f4b8f646cc10e7481333ee4,61,2021-03-24_23h52.23.699,CombinedMST_OA,2020.2.10,Win32,60,,,,,,,,,,,,,,,,,,,,,1,1,0.385615,0,76,76,76,1,1,OLD,OLD,F,,,,,,,,,,,,,,,,,,,,,,,,,,,,,,,,,,,,,,,,,,,,,,,,,,,,,,,,,,,,,,,,,,,,,,,,,,,,,,,,
,,,,,,,,,,,,TestWords/TAI_GI_SA.wav,,5f4b8f646cc10e7481333ee4,61,2021-03-24_23h52.23.699,CombinedMST_OA,2020.2.10,Win32,60,,,,,,,,,,,,,,,,,,,,,2,1,0.31824,0,77,77,77,1,2,NEW,SIMILAR,F,,,,,,,,,,,,,,,,,,,,,,,,,,,,,,,,,,,,,,,,,,,,,,,,,,,,,,,,,,,,,,,,,,,,,,,,,,,,,,,,
,,,,,,,,,,,,TestWords/RAY_PA_TI.wav,,5f4b8f646cc10e7481333ee4,61,2021-03-24_23h52.23.699,CombinedMST_OA,2020.2.10,Win32,60,,,,,,,,,,,,,,,,,,,,,1,1,0.202075,0,78,78,78,1,1,OLD,OLD,F,,,,,,,,,,,,,,,,,,,,,,,,,,,,,,,,,,,,,,,,,,,,,,,,,,,,,,,,,,,,,,,,,,,,,,,,,,,,,,,,
,,,,,,,,,,,,TestWords/PU_DAY_MO.wav,,5f4b8f646cc10e7481333ee4,61,2021-03-24_23h52.23.699,CombinedMST_OA,2020.2.10,Win32,60,,,,,,,,,,,,,,,,,,,,,2,1,0.32848,0,79,79,79,1,2,NEW,SIMILAR,F,,,,,,,,,,,,,,,,,,,,,,,,,,,,,,,,,,,,,,,,,,,,,,,,,,,,,,,,,,,,,,,,,,,,,,,,,,,,,,,,
,,,,,,,,,,,,TestWords/KO_SU_FAI.wav,,5f4b8f646cc10e7481333ee4,61,2021-03-24_23h52.23.699,CombinedMST_OA,2020.2.10,Win32,60,,,,,,,,,,,,,,,,,,,,,2,0,0.56194,0,80,80,80,1,1,OLD,OLD,F,,,,,,,,,,,,,,,,,,,,,,,,,,,,,,,,,,,,,,,,,,,,,,,,,,,,,,,,,,,,,,,,,,,,,,,,,,,,,,,,
,,,,,,,,,,,,TestWords/ZO_RAI_FU.wav,,5f4b8f646cc10e7481333ee4,61,2021-03-24_23h52.23.699,CombinedMST_OA,2020.2.10,Win32,60,,,,,,,,,,,,,,,,,,,,,2,1,0.199515,0,81,81,81,1,2,NEW,SIMILAR,F,,,,,,,,,,,,,,,,,,,,,,,,,,,,,,,,,,,,,,,,,,,,,,,,,,,,,,,,,,,,,,,,,,,,,,,,,,,,,,,,
,,,,,,,,,,,,TestWords/GA_MU_ZI.wav,,5f4b8f646cc10e7481333ee4,61,2021-03-24_23h52.23.699,CombinedMST_OA,2020.2.10,Win32,60,,,,,,,,,,,,,,,,,,,,,1,1,0.15066,0,82,82,82,1,1,OLD,OLD,F,,,,,,,,,,,,,,,,,,,,,,,,,,,,,,,,,,,,,,,,,,,,,,,,,,,,,,,,,,,,,,,,,,,,,,,,,,,,,,,,
,,,,,,,,,,,,TestWords/RAY_PA_TI.wav,,5f4b8f646cc10e7481333ee4,61,2021-03-24_23h52.23.699,CombinedMST_OA,2020.2.10,Win32,60,,,,,,,,,,,,,,,,,,,,,1,1,0.262185,0,83,83,83,1,1,OLD,OLD,F,,,,,,,,,,,,,,,,,,,,,,,,,,,,,,,,,,,,,,,,,,,,,,,,,,,,,,,,,,,,,,,,,,,,,,,,,,,,,,,,
,,,,,,,,,,,,TestWords/DAI_RU_CHI.wav,,5f4b8f646cc10e7481333ee4,61,2021-03-24_23h52.23.699,CombinedMST_OA,2020.2.10,Win32,60,,,,,,,,,,,,,,,,,,,,,1,1,0.351645,0,84,84,84,1,1,OLD,OLD,F,,,,,,,,,,,,,,,,,,,,,,,,,,,,,,,,,,,,,,,,,,,,,,,,,,,,,,,,,,,,,,,,,,,,,,,,,,,,,,,,
,,,,,,,,,,,,TestWords/GA_MU_ZI.wav,,5f4b8f646cc10e7481333ee4,61,2021-03-24_23h52.23.699,CombinedMST_OA,2020.2.10,Win32,60,,,,,,,,,,,,,,,,,,,,,1,1,0.140095,0,85,85,85,1,1,OLD,OLD,F,,,,,,,,,,,,,,,,,,,,,,,,,,,,,,,,,,,,,,,,,,,,,,,,,,,,,,,,,,,,,,,,,,,,,,,,,,,,,,,,
,,,,,,,,,,,,TestWords/NO_WA_BAY.wav,,5f4b8f646cc10e7481333ee4,61,2021-03-24_23h52.23.699,CombinedMST_OA,2020.2.10,Win32,60,,,,,,,,,,,,,,,,,,,,,2,1,0.31958,0,86,86,86,1,2,NEW,NEW,F,,,,,,,,,,,,,,,,,,,,,,,,,,,,,,,,,,,,,,,,,,,,,,,,,,,,,,,,,,,,,,,,,,,,,,,,,,,,,,,,
,,,,,,,,,,,,TestWords/FU_ZO_RAI.wav,,5f4b8f646cc10e7481333ee4,61,2021-03-24_23h52.23.699,CombinedMST_OA,2020.2.10,Win32,60,,,,,,,,,,,,,,,,,,,,,2,1,0.33566,0,87,87,87,1,2,NEW,SIMILAR,F,,,,,,,,,,,,,,,,,,,,,,,,,,,,,,,,,,,,,,,,,,,,,,,,,,,,,,,,,,,,,,,,,,,,,,,,,,,,,,,,
,,,,,,,,,,,,TestWords/KO_SU_FAI.wav,,5f4b8f646cc10e7481333ee4,61,2021-03-24_23h52.23.699,CombinedMST_OA,2020.2.10,Win32,60,,,,,,,,,,,,,,,,,,,,,1,1,0.427295,0,88,88,88,1,1,OLD,OLD,F,,,,,,,,,,,,,,,,,,,,,,,,,,,,,,,,,,,,,,,,,,,,,,,,,,,,,,,,,,,,,,,,,,,,,,,,,,,,,,,,
,,,,,,,,,,,,TestWords/PU_MO_DAY.wav,,5f4b8f646cc10e7481333ee4,61,2021-03-24_23h52.23.699,CombinedMST_OA,2020.2.10,Win32,60,,,,,,,,,,,,,,,,,,,,,1,0,0.77041,0,89,89,89,1,2,NEW,SIMILAR,F,,,,,,,,,,,,,,,,,,,,,,,,,,,,,,,,,,,,,,,,,,,,,,,,,,,,,,,,,,,,,,,,,,,,,,,,,,,,,,,,
,,,,,,,,,,,,TestWords/RAY_PA_TI.wav,,5f4b8f646cc10e7481333ee4,61,2021-03-24_23h52.23.699,CombinedMST_OA,2020.2.10,Win32,60,,,,,,,,,,,,,,,,,,,,,1,1,0.203285,0,90,90,90,1,1,OLD,OLD,F,,,,,,,,,,,,,,,,,,,,,,,,,,,,,,,,,,,,,,,,,,,,,,,,,,,,,,,,,,,,,,,,,,,,,,,,,,,,,,,,
,,,,,,,,,,,,TestWords/DAI_RU_CHI.wav,,5f4b8f646cc10e7481333ee4,61,2021-03-24_23h52.23.699,CombinedMST_OA,2020.2.10,Win32,60,,,,,,,,,,,,,,,,,,,,,1,1,0.339375,0,91,91,91,1,1,OLD,OLD,F,,,,,,,,,,,,,,,,,,,,,,,,,,,,,,,,,,,,,,,,,,,,,,,,,,,,,,,,,,,,,,,,,,,,,,,,,,,,,,,,
,,,,,,,,,,,,TestWords/RAI_FU_ZO.wav,,5f4b8f646cc10e7481333ee4,61,2021-03-24_23h52.23.699,CombinedMST_OA,2020.2.10,Win32,60,,,,,,,,,,,,,,,,,,,,,1,0,0.48563,0,92,92,92,1,2,NEW,SIMILAR,F,,,,,,,,,,,,,,,,,,,,,,,,,,,,,,,,,,,,,,,,,,,,,,,,,,,,,,,,,,,,,,,,,,,,,,,,,,,,,,,,
,,,,,,,,,,,,TestWords/GA_MU_ZI.wav,,5f4b8f646cc10e7481333ee4,61,2021-03-24_23h52.23.699,CombinedMST_OA,2020.2.10,Win32,60,,,,,,,,,,,,,,,,,,,,,1,1,2.48847,0,93,93,93,1,1,OLD,OLD,F,,,,,,,,,,,,,,,,,,,,,,,,,,,,,,,,,,,,,,,,,,,,,,,,,,,,,,,,,,,,,,,,,,,,,,,,,,,,,,,,
,,,,,,,,,,,,TestWords/HA_SI_JAI.wav,,5f4b8f646cc10e7481333ee4,61,2021-03-24_23h52.23.699,CombinedMST_OA,2020.2.10,Win32,60,,,,,,,,,,,,,,,,,,,,,1,0,1.102905,0,94,94,94,1,2,NEW,NEW,F,,,,,,,,,,,,,,,,,,,,,,,,,,,,,,,,,,,,,,,,,,,,,,,,,,,,,,,,,,,,,,,,,,,,,,,,,,,,,,,,
,,,,,,,,,,,,TestWords/MO_PU_DAY.wav,,5f4b8f646cc10e7481333ee4,61,2021-03-24_23h52.23.699,CombinedMST_OA,2020.2.10,Win32,60,,,,,,,,,,,,,,,,,,,,,1,0,0.788745,0,95,95,95,1,2,NEW,SIMILAR,F,,,,,,,,,,,,,,,,,,,,,,,,,,,,,,,,,,,,,,,,,,,,,,,,,,,,,,,,,,,,,,,,,,,,,,,,,,,,,,,,
,,,,,,,,,,,,TestWords/LA_ZAY_CHAI.wav,,5f4b8f646cc10e7481333ee4,61,2021-03-24_23h52.23.699,CombinedMST_OA,2020.2.10,Win32,60,,,,,,,,,,,,,,,,,,,,,2,1,0.286875,0,96,96,96,1,2,NEW,NEW,F,,,,,,,,,,,,,,,,,,,,,,,,,,,,,,,,,,,,,,,,,,,,,,,,,,,,,,,,,,,,,,,,,,,,,,,,,,,,,,,,
,,,,,,,,,,,,TestWords/GA_MU_ZI.wav,,5f4b8f646cc10e7481333ee4,61,2021-03-24_23h52.23.699,CombinedMST_OA,2020.2.10,Win32,60,,,,,,,,,,,,,,,,,,,,,1,1,0.00092,0,97,97,97,1,1,OLD,OLD,F,,,,,,,,,,,,,,,,,,,,,,,,,,,,,,,,,,,,,,,,,,,,,,,,,,,,,,,,,,,,,,,,,,,,,,,,,,,,,,,,
,,,,,,,,,,,,TestWords/ZO_FU_RAI.wav,,5f4b8f646cc10e7481333ee4,61,2021-03-24_23h52.23.699,CombinedMST_OA,2020.2.10,Win32,60,,,,,,,,,,,,,,,,,,,,,1,0,0.66924,0,98,98,98,1,2,NEW,SIMILAR,F,,,,,,,,,,,,,,,,,,,,,,,,,,,,,,,,,,,,,,,,,,,,,,,,,,,,,,,,,,,,,,,,,,,,,,,,,,,,,,,,
,,,,,,,,,,,,TestWords/WAI_RO_JU.wav,,5f4b8f646cc10e7481333ee4,61,2021-03-24_23h52.23.699,CombinedMST_OA,2020.2.10,Win32,60,,,,,,,,,,,,,,,,,,,,,2,1,0.319155,0,99,99,99,1,2,NEW,NEW,F,,,,,,,,,,,,,,,,,,,,,,,,,,,,,,,,,,,,,,,,,,,,,,,,,,,,,,,,,,,,,,,,,,,,,,,,,,,,,,,,
,,,,,,,,,,,,,2,5f4b8f646cc10e7481333ee4,61,2021-03-24_23h52.23.699,CombinedMST_OA,2020.2.10,Win32,60,,,,,,,,,,,,,,,,,SyllableCheck/SU.wav,,,,,,,,,,,,,,,,return,8.62033,blue,space,5.60147,2,1,5.239725,0,0,0,1,1,SU,SO,SU,ZU,,,,,,,,,,,,,,,,,,,,,,,,,,,,,,,,,,,,,,,,,,,,,,,,,,,,,,,,,,,,,,,
,,,,,,,,,,,,,3,5f4b8f646cc10e7481333ee4,61,2021-03-24_23h52.23.699,CombinedMST_OA,2020.2.10,Win32,60,,,,,,,,,,,,,,,,,SyllableCheck/FU.wav,,,,,,,,,,,,,,,,,,,,,3,1,2.57367,0,1,1,3,1,FU,VU,FO,FU,,,,,,,,,,,,,,,,,,,,,,,,,,,,,,,,,,,,,,,,,,,,,,,,,,,,,,,,,,,,,,,
,,,,,,,,,,,,,3,5f4b8f646cc10e7481333ee4,61,2021-03-24_23h52.23.699,CombinedMST_OA,2020.2.10,Win32,60,,,,,,,,,,,,,,,,,SyllableCheck/BA.wav,,,,,,,,,,,,,,,,,,,,,1,0,1.433325,0,2,2,4,1,BA,PA,BEE,BA,,,,,,,,,,,,,,,,,,,,,,,,,,,,,,,,,,,,,,,,,,,,,,,,,,,,,,,,,,,,,,,
,,,,,,,,,,,,,2,5f4b8f646cc10e7481333ee4,61,2021-03-24_23h52.23.699,CombinedMST_OA,2020.2.10,Win32,60,,,,,,,,,,,,,,,,,SyllableCheck/KAY.wav,,,,,,,,,,,,,,,,,,,,,2,1,2.3201,0,3,3,2,1,KAY,KEE,KAY,HAY,,,,,,,,,,,,,,,,,,,,,,,,,,,,,,,,,,,,,,,,,,,,,,,,,,,,,,,,,,,,,,,
,,,,,,,,,,,,,1,5f4b8f646cc10e7481333ee4,61,2021-03-24_23h52.23.699,CombinedMST_OA,2020.2.10,Win32,60,,,,,,,,,,,,,,,,,SyllableCheck/TI.wav,,,,,,,,,,,,,,,,,,,,,1,1,1.453445,0,4,4,0,1,TI,TEE,DEE,SEE,,,,,,,,,,,,,,,,,,,,,,,,,,,,,,,,,,,,,,,,,,,,,,,,,,,,,,,,,,,,,,,
,,,,,,,,,,,,,,5f4b8f646cc10e7481333ee4,61,2021-03-24_23h52.23.699,CombinedMST_OA,2020.2.10,Win32,60,,,,,,,,,,,,,,,,,,,,,,,,,,,,,,,,,,,,,,,,,,,,,,,,,,0,0,0,0,1,,,,,,,,,,,,,,,,,,,,,,,,,,,,,,,,,,,,,,,,,,,,,,,,,,,,,,,,,,
,,,,,,,,,,,,,,5f4b8f646cc10e7481333ee4,61,2021-03-24_23h52.23.699,CombinedMST_OA,2020.2.10,Win32,60,,,,,,,,,,,,,,,,,,,,,,,,,,,,,,,,,,,,,,,,,,,,,,,,,,,,,,,0,0,0,0,1,1,0,,,,,,,,,,,,,,,,,,,,,,,,,,,,,,,,,,,,,,,,,,,,,,,,,,,
,,,,,,,,,,,,,,5f4b8f646cc10e7481333ee4,61,2021-03-24_23h52.23.699,CombinedMST_OA,2020.2.10,Win32,60,space,5.009065,,,,,space,1.13544,,,,,,,,,,,,,,,,,,,,,,,,,,,,,,,,,,,,,,,,,,,,,,,,,,,,,,space,4.80899,space,1.25201,2,1,1.932915,0,0,0,0,1,Practice/Seagull_A.wav,2,3,NEW,Practice,,,,,,,,,,,,,,,,,,,,,,,,,,,,,,,,,,
,,,,,,,,,,,,,,5f4b8f646cc10e7481333ee4,61,2021-03-24_23h52.23.699,CombinedMST_OA,2020.2.10,Win32,60,,,,,,,,,,,,,,,,,,,,,,,,,,,,,,,,,,,,,,,,,,,,,,,,,,,,,,,,,,,,,,,,,,2,1,1.005485,0,1,1,1,1,Practice/Skid_B.wav,2,3,NEW,Practice,,,,,,,,,,,,,,,,,,,,,,,,,,,,,,,,,,
,,,,,,,,,,,,,,5f4b8f646cc10e7481333ee4,61,2021-03-24_23h52.23.699,CombinedMST_OA,2020.2.10,Win32,60,,,,,,,,,,,,,,,,,,,,,,,,,,,,,,,,,,,,,,,,,,,,,,,,,,,,,,,,,,,,,,,,,,1,1,0.45088,0,2,2,2,1,Practice/Seagull_A.wav,1,1,OLD,Practice,,,,,,,,,,,,,,,,,,,,,,,,,,,,,,,,,,
,,,,,,,,,,,,,,5f4b8f646cc10e7481333ee4,61,2021-03-24_23h52.23.699,CombinedMST_OA,2020.2.10,Win32,60,,,,,,,,,,,,,,,,,,,,,,,,,,,,,,,,,,,,,,,,,,,,,,,,,,,,,,,,,,,,,,,,,,2,1,0.650835,0,3,3,3,1,Practice/Gargle_A.wav,2,3,NEW,Practice,,,,,,,,,,,,,,,,,,,,,,,,,,,,,,,,,,
,,,,,,,,,,,,,,5f4b8f646cc10e7481333ee4,61,2021-03-24_23h52.23.699,CombinedMST_OA,2020.2.10,Win32,60,,,,,,,,,,,,,,,,,,,,,,,,,,,,,,,,,,,,,,,,,,,,,,,,,,,,,,,,,,,,,,,,,,2,1,0.70011,0,4,4,4,1,Practice/Gargle_B.wav,2,2,SIMILAR,Practice,,,,,,,,,,,,,,,,,,,,,,,,,,,,,,,,,,
,,,,,,,,,,,,,,5f4b8f646cc10e7481333ee4,61,2021-03-24_23h52.23.699,CombinedMST_OA,2020.2.10,Win32,60,,,,,,,,,,,,,,,,,,,,,,,,,,,,,,,,,,,,,,,,,,,,,,,,,,,,,,,,,,,,,,,,,,,,,,,,,,SoundMST/Airplane_B.wav,2,3,NEW,D,space,1.186445,2,1,0.70273,0,0,0,0,1,,,,,,,,,,,,,,,,,,,,,,,,
,,,,,,,,,,,,,,5f4b8f646cc10e7481333ee4,61,2021-03-24_23h52.23.699,CombinedMST_OA,2020.2.10,Win32,60,,,,,,,,,,,,,,,,,,,,,,,,,,,,,,,,,,,,,,,,,,,,,,,,,,,,,,,,,,,,,,,,,,,,,,,,,,SoundMST/Sneeze_B.wav,2,3,NEW,D,,,2,1,0.38485,0,1,1,1,1,,,,,,,,,,,,,,,,,,,,,,,,
,,,,,,,,,,,,,,5f4b8f646cc10e7481333ee4,61,2021-03-24_23h52.23.699,CombinedMST_OA,2020.2.10,Win32,60,,,,,,,,,,,,,,,,,,,,,,,,,,,,,,,,,,,,,,,,,,,,,,,,,,,,,,,,,,,,,,,,,,,,,,,,,,SoundMST/Siren_E.wav,2,3,NEW,D,,,2,1,0.65588,0,2,2,2,1,,,,,,,,,,,,,,,,,,,,,,,,
,,,,,,,,,,,,,,5f4b8f646cc10e7481333ee4,61,2021-03-24_23h52.23.699,CombinedMST_OA,2020.2.10,Win32,60,,,,,,,,,,,,,,,,,,,,,,,,,,,,,,,,,,,,,,,,,,,,,,,,,,,,,,,,,,,,,,,,,,,,,,,,,,SoundMST/Whistle_B.wav,2,3,NEW,D,,,2,1,0.40178,0,3,3,3,1,,,,,,,,,,,,,,,,,,,,,,,,
,,,,,,,,,,,,,,5f4b8f646cc10e7481333ee4,61,2021-03-24_23h52.23.699,CombinedMST_OA,2020.2.10,Win32,60,,,,,,,,,,,,,,,,,,,,,,,,,,,,,,,,,,,,,,,,,,,,,,,,,,,,,,,,,,,,,,,,,,,,,,,,,,SoundMST/Cup.wav,2,3,NEW,D,,,2,1,0.46912,0,4,4,4,1,,,,,,,,,,,,,,,,,,,,,,,,
,,,,,,,,,,,,,,5f4b8f646cc10e7481333ee4,61,2021-03-24_23h52.23.699,CombinedMST_OA,2020.2.10,Win32,60,,,,,,,,,,,,,,,,,,,,,,,,,,,,,,,,,,,,,,,,,,,,,,,,,,,,,,,,,,,,,,,,,,,,,,,,,,SoundMST/Writing_A.wav,2,3,NEW,D,,,2,1,0.38511,0,5,5,5,1,,,,,,,,,,,,,,,,,,,,,,,,
,,,,,,,,,,,,,,5f4b8f646cc10e7481333ee4,61,2021-03-24_23h52.23.699,CombinedMST_OA,2020.2.10,Win32,60,,,,,,,,,,,,,,,,,,,,,,,,,,,,,,,,,,,,,,,,,,,,,,,,,,,,,,,,,,,,,,,,,,,,,,,,,,SoundMST/Bullfrog.wav,2,3,NEW,D,,,2,1,0.40162,0,6,6,6,1,,,,,,,,,,,,,,,,,,,,,,,,
,,,,,,,,,,,,,,5f4b8f646cc10e7481333ee4,61,2021-03-24_23h52.23.699,CombinedMST_OA,2020.2.10,Win32,60,,,,,,,,,,,,,,,,,,,,,,,,,,,,,,,,,,,,,,,,,,,,,,,,,,,,,,,,,,,,,,,,,,,,,,,,,,SoundMST/Slurp.wav,2,3,NEW,D,,,2,1,0.485265,0,7,7,7,1,,,,,,,,,,,,,,,,,,,,,,,,
,,,,,,,,,,,,,,5f4b8f646cc10e7481333ee4,61,2021-03-24_23h52.23.699,CombinedMST_OA,2020.2.10,Win32,60,,,,,,,,,,,,,,,,,,,,,,,,,,,,,,,,,,,,,,,,,,,,,,,,,,,,,,,,,,,,,,,,,,,,,,,,,,SoundMST/Droplet_B.wav,2,3,NEW,D,,,2,1,0.385775,0,8,8,8,1,,,,,,,,,,,,,,,,,,,,,,,,
,,,,,,,,,,,,,,5f4b8f646cc10e7481333ee4,61,2021-03-24_23h52.23.699,CombinedMST_OA,2020.2.10,Win32,60,,,,,,,,,,,,,,,,,,,,,,,,,,,,,,,,,,,,,,,,,,,,,,,,,,,,,,,,,,,,,,,,,,,,,,,,,,SoundMST/Fireworks.wav,2,3,NEW,D,,,2,1,0.424035,0,9,9,9,1,,,,,,,,,,,,,,,,,,,,,,,,
,,,,,,,,,,,,,,5f4b8f646cc10e7481333ee4,61,2021-03-24_23h52.23.699,CombinedMST_OA,2020.2.10,Win32,60,,,,,,,,,,,,,,,,,,,,,,,,,,,,,,,,,,,,,,,,,,,,,,,,,,,,,,,,,,,,,,,,,,,,,,,,,,SoundMST/Sleighbells_B.wav,2,3,NEW,D,,,2,1,0.287175,0,10,10,10,1,,,,,,,,,,,,,,,,,,,,,,,,
,,,,,,,,,,,,,,5f4b8f646cc10e7481333ee4,61,2021-03-24_23h52.23.699,CombinedMST_OA,2020.2.10,Win32,60,,,,,,,,,,,,,,,,,,,,,,,,,,,,,,,,,,,,,,,,,,,,,,,,,,,,,,,,,,,,,,,,,,,,,,,,,,SoundMST/Howl.wav,2,3,NEW,D,,,2,1,0.354565,0,11,11,11,1,,,,,,,,,,,,,,,,,,,,,,,,
,,,,,,,,,,,,,,5f4b8f646cc10e7481333ee4,61,2021-03-24_23h52.23.699,CombinedMST_OA,2020.2.10,Win32,60,,,,,,,,,,,,,,,,,,,,,,,,,,,,,,,,,,,,,,,,,,,,,,,,,,,,,,,,,,,,,,,,,,,,,,,,,,SoundMST/Airplane_B.wav,1,1,OLD,D,,,1,1,0.63555,0,12,12,12,1,,,,,,,,,,,,,,,,,,,,,,,,
,,,,,,,,,,,,,,5f4b8f646cc10e7481333ee4,61,2021-03-24_23h52.23.699,CombinedMST_OA,2020.2.10,Win32,60,,,,,,,,,,,,,,,,,,,,,,,,,,,,,,,,,,,,,,,,,,,,,,,,,,,,,,,,,,,,,,,,,,,,,,,,,,SoundMST/Phone_D.wav,2,3,NEW,D,,,2,1,0.302325,0,13,13,13,1,,,,,,,,,,,,,,,,,,,,,,,,
,,,,,,,,,,,,,,5f4b8f646cc10e7481333ee4,61,2021-03-24_23h52.23.699,CombinedMST_OA,2020.2.10,Win32,60,,,,,,,,,,,,,,,,,,,,,,,,,,,,,,,,,,,,,,,,,,,,,,,,,,,,,,,,,,,,,,,,,,,,,,,,,,SoundMST/Siren_A.wav,2,2,SIMILAR,D,,,2,1,0.335335,0,14,14,14,1,,,,,,,,,,,,,,,,,,,,,,,,
,,,,,,,,,,,,,,5f4b8f646cc10e7481333ee4,61,2021-03-24_23h52.23.699,CombinedMST_OA,2020.2.10,Win32,60,,,,,,,,,,,,,,,,,,,,,,,,,,,,,,,,,,,,,,,,,,,,,,,,,,,,,,,,,,,,,,,,,,,,,,,,,,SoundMST/ManWhistle.wav,2,3,NEW,D,,,2,1,0.41803,0,15,15,15,1,,,,,,,,,,,,,,,,,,,,,,,,
,,,,,,,,,,,,,,5f4b8f646cc10e7481333ee4,61,2021-03-24_23h52.23.699,CombinedMST_OA,2020.2.10,Win32,60,,,,,,,,,,,,,,,,,,,,,,,,,,,,,,,,,,,,,,,,,,,,,,,,,,,,,,,,,,,,,,,,,,,,,,,,,,SoundMST/Bagpipe.wav,2,3,NEW,D,,,2,1,0.335725,0,16,16,16,1,,,,,,,,,,,,,,,,,,,,,,,,
,,,,,,,,,,,,,,5f4b8f646cc10e7481333ee4,61,2021-03-24_23h52.23.699,CombinedMST_OA,2020.2.10,Win32,60,,,,,,,,,,,,,,,,,,,,,,,,,,,,,,,,,,,,,,,,,,,,,,,,,,,,,,,,,,,,,,,,,,,,,,,,,,SoundMST/Sneeze_B.wav,1,1,OLD,D,,,1,1,2.07635,0,17,17,17,1,,,,,,,,,,,,,,,,,,,,,,,,
,,,,,,,,,,,,,,5f4b8f646cc10e7481333ee4,61,2021-03-24_23h52.23.699,CombinedMST_OA,2020.2.10,Win32,60,,,,,,,,,,,,,,,,,,,,,,,,,,,,,,,,,,,,,,,,,,,,,,,,,,,,,,,,,,,,,,,,,,,,,,,,,,SoundMST/Clap_B.wav,2,3,NEW,D,,,2,1,0.75744,0,18,18,18,1,,,,,,,,,,,,,,,,,,,,,,,,
,,,,,,,,,,,,,,5f4b8f646cc10e7481333ee4,61,2021-03-24_23h52.23.699,CombinedMST_OA,2020.2.10,Win32,60,,,,,,,,,,,,,,,,,,,,,,,,,,,,,,,,,,,,,,,,,,,,,,,,,,,,,,,,,,,,,,,,,,,,,,,,,,SoundMST/Typing.wav,2,3,NEW,D,,,2,1,0.38503,0,19,19,19,1,,,,,,,,,,,,,,,,,,,,,,,,
,,,,,,,,,,,,,,5f4b8f646cc10e7481333ee4,61,2021-03-24_23h52.23.699,CombinedMST_OA,2020.2.10,Win32,60,,,,,,,,,,,,,,,,,,,,,,,,,,,,,,,,,,,,,,,,,,,,,,,,,,,,,,,,,,,,,,,,,,,,,,,,,,SoundMST/Buzz.wav,2,3,NEW,D,,,2,1,0.38681,0,20,20,20,1,,,,,,,,,,,,,,,,,,,,,,,,
,,,,,,,,,,,,,,5f4b8f646cc10e7481333ee4,61,2021-03-24_23h52.23.699,CombinedMST_OA,2020.2.10,Win32,60,,,,,,,,,,,,,,,,,,,,,,,,,,,,,,,,,,,,,,,,,,,,,,,,,,,,,,,,,,,,,,,,,,,,,,,,,,SoundMST/Whistle_C.wav,2,2,SIMILAR,D,,,2,1,0.369235,0,21,21,21,1,,,,,,,,,,,,,,,,,,,,,,,,
,,,,,,,,,,,,,,5f4b8f646cc10e7481333ee4,61,2021-03-24_23h52.23.699,CombinedMST_OA,2020.2.10,Win32,60,,,,,,,,,,,,,,,,,,,,,,,,,,,,,,,,,,,,,,,,,,,,,,,,,,,,,,,,,,,,,,,,,,,,,,,,,,SoundMST/Cat_A.wav,2,3,NEW,D,,,2,1,0.353075,0,22,22,22,1,,,,,,,,,,,,,,,,,,,,,,,,
,,,,,,,,,,,,,,5f4b8f646cc10e7481333ee4,61,2021-03-24_23h52.23.699,CombinedMST_OA,2020.2.10,Win32,60,,,,,,,,,,,,,,,,,,,,,,,,,,,,,,,,,,,,,,,,,,,,,,,,,,,,,,,,,,,,,,,,,,,,,,,,,,SoundMST/Cup.wav,1,1,OLD,D,,,2,0,0.385345,0,23,23,23,1,,,,,,,,,,,,,,,,,,,,,,,,
,,,,,,,,,,,,,,5f4b8f646cc10e7481333ee4,61,2021-03-24_23h52.23.699,CombinedMST_OA,2020.2.10,Win32,60,,,,,,,,,,,,,,,,,,,,,,,,,,,,,,,,,,,,,,,,,,,,,,,,,,,,,,,,,,,,,,,,,,,,,,,,,,SoundMST/Bowlingpins.wav,2,3,NEW,D,,,2,1,0.32813,0,24,24,24,1,,,,,,,,,,,,,,,,,,,,,,,,
,,,,,,,,,,,,,,5f4b8f646cc10e7481333ee4,61,2021-03-24_23h52.23.699,CombinedMST_OA,2020.2.10,Win32,60,,,,,,,,,,,,,,,,,,,,,,,,,,,,,,,,,,,,,,,,,,,,,,,,,,,,,,,,,,,,,,,,,,,,,,,,,,SoundMST/Slurp.wav,1,1,OLD,D,,,1,1,0.62066,0,25,25,25,1,,,,,,,,,,,,,,,,,,,,,,,,
,,,,,,,,,,,,,,5f4b8f646cc10e7481333ee4,61,2021-03-24_23h52.23.699,CombinedMST_OA,2020.2.10,Win32,60,,,,,,,,,,,,,,,,,,,,,,,,,,,,,,,,,,,,,,,,,,,,,,,,,,,,,,,,,,,,,,,,,,,,,,,,,,SoundMST/Writing_C.wav,2,2,SIMILAR,D,,,2,1,0.32458,0,26,26,26,1,,,,,,,,,,,,,,,,,,,,,,,,
,,,,,,,,,,,,,,5f4b8f646cc10e7481333ee4,61,2021-03-24_23h52.23.699,CombinedMST_OA,2020.2.10,Win32,60,,,,,,,,,,,,,,,,,,,,,,,,,,,,,,,,,,,,,,,,,,,,,,,,,,,,,,,,,,,,,,,,,,,,,,,,,,SoundMST/Crow_B.wav,2,3,NEW,D,,,2,1,0.30146,0,27,27,27,1,,,,,,,,,,,,,,,,,,,,,,,,
,,,,,,,,,,,,,,5f4b8f646cc10e7481333ee4,61,2021-03-24_23h52.23.699,CombinedMST_OA,2020.2.10,Win32,60,,,,,,,,,,,,,,,,,,,,,,,,,,,,,,,,,,,,,,,,,,,,,,,,,,,,,,,,,,,,,,,,,,,,,,,,,,SoundMST/Bullfrog.wav,1,1,OLD,D,,,1,1,0.65272,0,28,28,28,1,,,,,,,,,,,,,,,,,,,,,,,,
,,,,,,,,,,,,,,5f4b8f646cc10e7481333ee4,61,2021-03-24_23h52.23.699,CombinedMST_OA,2020.2.10,Win32,60,,,,,,,,,,,,,,,,,,,,,,,,,,,,,,,,,,,,,,,,,,,,,,,,,,,,,,,,,,,,,,,,,,,,,,,,,,SoundMST/Fireworks.wav,1,1,OLD,D,,,1,1,0.335175,0,29,29,29,1,,,,,,,,,,,,,,,,,,,,,,,,
,,,,,,,,,,,,,,5f4b8f646cc10e7481333ee4,61,2021-03-24_23h52.23.699,CombinedMST_OA,2020.2.10,Win32,60,,,,,,,,,,,,,,,,,,,,,,,,,,,,,,,,,,,,,,,,,,,,,,,,,,,,,,,,,,,,,,,,,,,,,,,,,,SoundMST/Helicopter_A.wav,2,3,NEW,D,,,2,1,0.277115,0,30,30,30,1,,,,,,,,,,,,,,,,,,,,,,,,
,,,,,,,,,,,,,,5f4b8f646cc10e7481333ee4,61,2021-03-24_23h52.23.699,CombinedMST_OA,2020.2.10,Win32,60,,,,,,,,,,,,,,,,,,,,,,,,,,,,,,,,,,,,,,,,,,,,,,,,,,,,,,,,,,,,,,,,,,,,,,,,,,SoundMST/Printer.wav,2,3,NEW,D,,,2,1,0.31696,0,31,31,31,1,,,,,,,,,,,,,,,,,,,,,,,,
,,,,,,,,,,,,,,5f4b8f646cc10e7481333ee4,61,2021-03-24_23h52.23.699,CombinedMST_OA,2020.2.10,Win32,60,,,,,,,,,,,,,,,,,,,,,,,,,,,,,,,,,,,,,,,,,,,,,,,,,,,,,,,,,,,,,,,,,,,,,,,,,,SoundMST/Sleighbells_B.wav,1,1,OLD,D,,,2,0,0.305545,0,32,32,32,1,,,,,,,,,,,,,,,,,,,,,,,,
,,,,,,,,,,,,,,5f4b8f646cc10e7481333ee4,61,2021-03-24_23h52.23.699,CombinedMST_OA,2020.2.10,Win32,60,,,,,,,,,,,,,,,,,,,,,,,,,,,,,,,,,,,,,,,,,,,,,,,,,,,,,,,,,,,,,,,,,,,,,,,,,,SoundMST/Camera.wav,2,3,NEW,D,,,2,1,0.38451,0,33,33,33,1,,,,,,,,,,,,,,,,,,,,,,,,
,,,,,,,,,,,,,,5f4b8f646cc10e7481333ee4,61,2021-03-24_23h52.23.699,CombinedMST_OA,2020.2.10,Win32,60,,,,,,,,,,,,,,,,,,,,,,,,,,,,,,,,,,,,,,,,,,,,,,,,,,,,,,,,,,,,,,,,,,,,,,,,,,SoundMST/Clap_C.wav,2,2,SIMILAR,D,,,1,0,0.285135,0,34,34,34,1,,,,,,,,,,,,,,,,,,,,,,,,
,,,,,,,,,,,,,,5f4b8f646cc10e7481333ee4,61,2021-03-24_23h52.23.699,CombinedMST_OA,2020.2.10,Win32,60,,,,,,,,,,,,,,,,,,,,,,,,,,,,,,,,,,,,,,,,,,,,,,,,,,,,,,,,,,,,,,,,,,,,,,,,,,SoundMST/Droplet_B.wav,1,1,OLD,D,,,2,0,0.36834,0,35,35,35,1,,,,,,,,,,,,,,,,,,,,,,,,
,,,,,,,,,,,,,,5f4b8f646cc10e7481333ee4,61,2021-03-24_23h52.23.699,CombinedMST_OA,2020.2.10,Win32,60,,,,,,,,,,,,,,,,,,,,,,,,,,,,,,,,,,,,,,,,,,,,,,,,,,,,,,,,,,,,,,,,,,,,,,,,,,SoundMST/Phone_E.wav,2,2,SIMILAR,D,,,2,1,0.441365,0,36,36,36,1,,,,,,,,,,,,,,,,,,,,,,,,
,,,,,,,,,,,,,,5f4b8f646cc10e7481333ee4,61,2021-03-24_23h52.23.699,CombinedMST_OA,2020.2.10,Win32,60,,,,,,,,,,,,,,,,,,,,,,,,,,,,,,,,,,,,,,,,,,,,,,,,,,,,,,,,,,,,,,,,,,,,,,,,,,SoundMST/Piano_D.wav,2,3,NEW,D,,,2,1,0.313475,0,37,37,37,1,,,,,,,,,,,,,,,,,,,,,,,,
,,,,,,,,,,,,,,5f4b8f646cc10e7481333ee4,61,2021-03-24_23h52.23.699,CombinedMST_OA,2020.2.10,Win32,60,,,,,,,,,,,,,,,,,,,,,,,,,,,,,,,,,,,,,,,,,,,,,,,,,,,,,,,,,,,,,,,,,,,,,,,,,,SoundMST/Howl.wav,1,1,OLD,D,,,1,1,0.43517,0,38,38,38,1,,,,,,,,,,,,,,,,,,,,,,,,
,,,,,,,,,,,,,,5f4b8f646cc10e7481333ee4,61,2021-03-24_23h52.23.699,CombinedMST_OA,2020.2.10,Win32,60,,,,,,,,,,,,,,,,,,,,,,,,,,,,,,,,,,,,,,,,,,,,,,,,,,,,,,,,,,,,,,,,,,,,,,,,,,SoundMST/CarStart_E.wav,2,3,NEW,D,,,2,1,0.35213,0,39,39,39,1,,,,,,,,,,,,,,,,,,,,,,,,
,,,,,,,,,,,,,,5f4b8f646cc10e7481333ee4,61,2021-03-24_23h52.23.699,CombinedMST_OA,2020.2.10,Win32,60,,,,,,,,,,,,,,,,,,,,,,,,,,,,,,,,,,,,,,,,,,,,,,,,,,,,,,,,,,,,,,,,,,,,,,,,,,SoundMST/ManWhistle.wav,1,1,OLD,D,,,2,0,0.41779,0,40,40,40,1,,,,,,,,,,,,,,,,,,,,,,,,
,,,,,,,,,,,,,,5f4b8f646cc10e7481333ee4,61,2021-03-24_23h52.23.699,CombinedMST_OA,2020.2.10,Win32,60,,,,,,,,,,,,,,,,,,,,,,,,,,,,,,,,,,,,,,,,,,,,,,,,,,,,,,,,,,,,,,,,,,,,,,,,,,SoundMST/Bagpipe.wav,1,1,OLD,D,,,2,0,0.30013,0,41,41,41,1,,,,,,,,,,,,,,,,,,,,,,,,
,,,,,,,,,,,,,,5f4b8f646cc10e7481333ee4,61,2021-03-24_23h52.23.699,CombinedMST_OA,2020.2.10,Win32,60,,,,,,,,,,,,,,,,,,,,,,,,,,,,,,,,,,,,,,,,,,,,,,,,,,,,,,,,,,,,,,,,,,,,,,,,,,SoundMST/IceDrop.wav,2,3,NEW,D,,,2,1,0.43548,0,42,42,42,1,,,,,,,,,,,,,,,,,,,,,,,,
,,,,,,,,,,,,,,5f4b8f646cc10e7481333ee4,61,2021-03-24_23h52.23.699,CombinedMST_OA,2020.2.10,Win32,60,,,,,,,,,,,,,,,,,,,,,,,,,,,,,,,,,,,,,,,,,,,,,,,,,,,,,,,,,,,,,,,,,,,,,,,,,,SoundMST/Cat_A.wav,1,1,OLD,D,,,1,1,0.767825,0,43,43,43,1,,,,,,,,,,,,,,,,,,,,,,,,
,,,,,,,,,,,,,,5f4b8f646cc10e7481333ee4,61,2021-03-24_23h52.23.699,CombinedMST_OA,2020.2.10,Win32,60,,,,,,,,,,,,,,,,,,,,,,,,,,,,,,,,,,,,,,,,,,,,,,,,,,,,,,,,,,,,,,,,,,,,,,,,,,SoundMST/Typing.wav,1,1,OLD,D,,,1,1,0.385085,0,44,44,44,1,,,,,,,,,,,,,,,,,,,,,,,,
,,,,,,,,,,,,,,5f4b8f646cc10e7481333ee4,61,2021-03-24_23h52.23.699,CombinedMST_OA,2020.2.10,Win32,60,,,,,,,,,,,,,,,,,,,,,,,,,,,,,,,,,,,,,,,,,,,,,,,,,,,,,,,,,,,,,,,,,,,,,,,,,,SoundMST/PaperRip.wav,2,3,NEW,D,,,2,1,0.38544,0,45,45,45,1,,,,,,,,,,,,,,,,,,,,,,,,
,,,,,,,,,,,,,,5f4b8f646cc10e7481333ee4,61,2021-03-24_23h52.23.699,CombinedMST_OA,2020.2.10,Win32,60,,,,,,,,,,,,,,,,,,,,,,,,,,,,,,,,,,,,,,,,,,,,,,,,,,,,,,,,,,,,,,,,,,,,,,,,,,SoundMST/Buzz.wav,1,1,OLD,D,,,1,1,0.334335,0,46,46,46,1,,,,,,,,,,,,,,,,,,,,,,,,
,,,,,,,,,,,,,,5f4b8f646cc10e7481333ee4,61,2021-03-24_23h52.23.699,CombinedMST_OA,2020.2.10,Win32,60,,,,,,,,,,,,,,,,,,,,,,,,,,,,,,,,,,,,,,,,,,,,,,,,,,,,,,,,,,,,,,,,,,,,,,,,,,SoundMST/Bowlingpins.wav,1,1,OLD,D,,,1,1,0.306485,0,47,47,47,1,,,,,,,,,,,,,,,,,,,,,,,,
,,,,,,,,,,,,,,5f4b8f646cc10e7481333ee4,61,2021-03-24_23h52.23.699,CombinedMST_OA,2020.2.10,Win32,60,,,,,,,,,,,,,,,,,,,,,,,,,,,,,,,,,,,,,,,,,,,,,,,,,,,,,,,,,,,,,,,,,,,,,,,,,,SoundMST/Chime_B.wav,2,3,NEW,D,,,2,1,0.315565,0,48,48,48,1,,,,,,,,,,,,,,,,,,,,,,,,
,,,,,,,,,,,,,,5f4b8f646cc10e7481333ee4,61,2021-03-24_23h52.23.699,CombinedMST_OA,2020.2.10,Win32,60,,,,,,,,,,,,,,,,,,,,,,,,,,,,,,,,,,,,,,,,,,,,,,,,,,,,,,,,,,,,,,,,,,,,,,,,,,SoundMST/Pour_B.wav,2,3,NEW,D,,,2,1,0.305355,0,49,49,49,1,,,,,,,,,,,,,,,,,,,,,,,,
,,,,,,,,,,,,,,5f4b8f646cc10e7481333ee4,61,2021-03-24_23h52.23.699,CombinedMST_OA,2020.2.10,Win32,60,,,,,,,,,,,,,,,,,,,,,,,,,,,,,,,,,,,,,,,,,,,,,,,,,,,,,,,,,,,,,,,,,,,,,,,,,,SoundMST/Duck_A.wav,2,3,NEW,D,,,2,1,0.33859,0,50,50,50,1,,,,,,,,,,,,,,,,,,,,,,,,
,,,,,,,,,,,,,,5f4b8f646cc10e7481333ee4,61,2021-03-24_23h52.23.699,CombinedMST_OA,2020.2.10,Win32,60,,,,,,,,,,,,,,,,,,,,,,,,,,,,,,,,,,,,,,,,,,,,,,,,,,,,,,,,,,,,,,,,,,,,,,,,,,SoundMST/Crow_A.wav,2,2,SIMILAR,D,,,1,0,0.422585,0,51,51,51,1,,,,,,,,,,,,,,,,,,,,,,,,
,,,,,,,,,,,,,,5f4b8f646cc10e7481333ee4,61,2021-03-24_23h52.23.699,CombinedMST_OA,2020.2.10,Win32,60,,,,,,,,,,,,,,,,,,,,,,,,,,,,,,,,,,,,,,,,,,,,,,,,,,,,,,,,,,,,,,,,,,,,,,,,,,SoundMST/Footsteps_C.wav,2,3,NEW,D,,,2,1,0.31876,0,52,52,52,1,,,,,,,,,,,,,,,,,,,,,,,,
,,,,,,,,,,,,,,5f4b8f646cc10e7481333ee4,61,2021-03-24_23h52.23.699,CombinedMST_OA,2020.2.10,Win32,60,,,,,,,,,,,,,,,,,,,,,,,,,,,,,,,,,,,,,,,,,,,,,,,,,,,,,,,,,,,,,,,,,,,,,,,,,,SoundMST/Helicopter_A.wav,1,1,OLD,D,,,2,0,0.4027,0,53,53,53,1,,,,,,,,,,,,,,,,,,,,,,,,
,,,,,,,,,,,,,,5f4b8f646cc10e7481333ee4,61,2021-03-24_23h52.23.699,CombinedMST_OA,2020.2.10,Win32,60,,,,,,,,,,,,,,,,,,,,,,,,,,,,,,,,,,,,,,,,,,,,,,,,,,,,,,,,,,,,,,,,,,,,,,,,,,SoundMST/Piano_D.wav,1,1,OLD,D,,,1,1,0.318565,0,54,54,54,1,,,,,,,,,,,,,,,,,,,,,,,,
,,,,,,,,,,,,,,5f4b8f646cc10e7481333ee4,61,2021-03-24_23h52.23.699,CombinedMST_OA,2020.2.10,Win32,60,,,,,,,,,,,,,,,,,,,,,,,,,,,,,,,,,,,,,,,,,,,,,,,,,,,,,,,,,,,,,,,,,,,,,,,,,,SoundMST/Coin_D.wav,2,3,NEW,D,,,2,1,0.318005,0,55,55,55,1,,,,,,,,,,,,,,,,,,,,,,,,
,,,,,,,,,,,,,,5f4b8f646cc10e7481333ee4,61,2021-03-24_23h52.23.699,CombinedMST_OA,2020.2.10,Win32,60,,,,,,,,,,,,,,,,,,,,,,,,,,,,,,,,,,,,,,,,,,,,,,,,,,,,,,,,,,,,,,,,,,,,,,,,,,SoundMST/Printer.wav,1,1,OLD,D,,,1,1,0.332225,0,56,56,56,1,,,,,,,,,,,,,,,,,,,,,,,,
,,,,,,,,,,,,,,5f4b8f646cc10e7481333ee4,61,2021-03-24_23h52.23.699,CombinedMST_OA,2020.2.10,Win32,60,,,,,,,,,,,,,,,,,,,,,,,,,,,,,,,,,,,,,,,,,,,,,,,,,,,,,,,,,,,,,,,,,,,,,,,,,,SoundMST/Steam.wav,2,3,NEW,D,,,2,1,0.31878,0,57,57,57,1,,,,,,,,,,,,,,,,,,,,,,,,
,,,,,,,,,,,,,,5f4b8f646cc10e7481333ee4,61,2021-03-24_23h52.23.699,CombinedMST_OA,2020.2.10,Win32,60,,,,,,,,,,,,,,,,,,,,,,,,,,,,,,,,,,,,,,,,,,,,,,,,,,,,,,,,,,,,,,,,,,,,,,,,,,SoundMST/Camera.wav,1,1,OLD,D,,,2,0,0.48581,0,58,58,58,1,,,,,,,,,,,,,,,,,,,,,,,,
,,,,,,,,,,,,,,5f4b8f646cc10e7481333ee4,61,2021-03-24_23h52.23.699,CombinedMST_OA,2020.2.10,Win32,60,,,,,,,,,,,,,,,,,,,,,,,,,,,,,,,,,,,,,,,,,,,,,,,,,,,,,,,,,,,,,,,,,,,,,,,,,,SoundMST/CarStart_D.wav,2,2,SIMILAR,D,,,2,1,0.27449,0,59,59,59,1,,,,,,,,,,,,,,,,,,,,,,,,
,,,,,,,,,,,,,,5f4b8f646cc10e7481333ee4,61,2021-03-24_23h52.23.699,CombinedMST_OA,2020.2.10,Win32,60,,,,,,,,,,,,,,,,,,,,,,,,,,,,,,,,,,,,,,,,,,,,,,,,,,,,,,,,,,,,,,,,,,,,,,,,,,SoundMST/Donkey.wav,2,3,NEW,D,,,2,1,0.30408,0,60,60,60,1,,,,,,,,,,,,,,,,,,,,,,,,
,,,,,,,,,,,,,,5f4b8f646cc10e7481333ee4,61,2021-03-24_23h52.23.699,CombinedMST_OA,2020.2.10,Win32,60,,,,,,,,,,,,,,,,,,,,,,,,,,,,,,,,,,,,,,,,,,,,,,,,,,,,,,,,,,,,,,,,,,,,,,,,,,SoundMST/Mosquito_B.wav,2,3,NEW,D,,,2,1,0.32154,0,61,61,61,1,,,,,,,,,,,,,,,,,,,,,,,,
,,,,,,,,,,,,,,5f4b8f646cc10e7481333ee4,61,2021-03-24_23h52.23.699,CombinedMST_OA,2020.2.10,Win32,60,,,,,,,,,,,,,,,,,,,,,,,,,,,,,,,,,,,,,,,,,,,,,,,,,,,,,,,,,,,,,,,,,,,,,,,,,,SoundMST/PaperRip.wav,1,1,OLD,D,,,2,0,0.42394,0,62,62,62,1,,,,,,,,,,,,,,,,,,,,,,,,
,,,,,,,,,,,,,,5f4b8f646cc10e7481333ee4,61,2021-03-24_23h52.23.699,CombinedMST_OA,2020.2.10,Win32,60,,,,,,,,,,,,,,,,,,,,,,,,,,,,,,,,,,,,,,,,,,,,,,,,,,,,,,,,,,,,,,,,,,,,,,,,,,SoundMST/Airhorn.wav,2,3,NEW,D,,,2,1,0.320225,0,63,63,63,1,,,,,,,,,,,,,,,,,,,,,,,,
,,,,,,,,,,,,,,5f4b8f646cc10e7481333ee4,61,2021-03-24_23h52.23.699,CombinedMST_OA,2020.2.10,Win32,60,,,,,,,,,,,,,,,,,,,,,,,,,,,,,,,,,,,,,,,,,,,,,,,,,,,,,,,,,,,,,,,,,,,,,,,,,,SoundMST/Horse.wav,2,3,NEW,D,,,2,1,0.30252,0,64,64,64,1,,,,,,,,,,,,,,,,,,,,,,,,
,,,,,,,,,,,,,,5f4b8f646cc10e7481333ee4,61,2021-03-24_23h52.23.699,CombinedMST_OA,2020.2.10,Win32,60,,,,,,,,,,,,,,,,,,,,,,,,,,,,,,,,,,,,,,,,,,,,,,,,,,,,,,,,,,,,,,,,,,,,,,,,,,SoundMST/Trumpet_B.wav,2,3,NEW,D,,,2,1,0.301105,0,65,65,65,1,,,,,,,,,,,,,,,,,,,,,,,,
,,,,,,,,,,,,,,5f4b8f646cc10e7481333ee4,61,2021-03-24_23h52.23.699,CombinedMST_OA,2020.2.10,Win32,60,,,,,,,,,,,,,,,,,,,,,,,,,,,,,,,,,,,,,,,,,,,,,,,,,,,,,,,,,,,,,,,,,,,,,,,,,,SoundMST/Pour_C.wav,2,2,SIMILAR,D,,,1,0,0.334825,0,66,66,66,1,,,,,,,,,,,,,,,,,,,,,,,,
,,,,,,,,,,,,,,5f4b8f646cc10e7481333ee4,61,2021-03-24_23h52.23.699,CombinedMST_OA,2020.2.10,Win32,60,,,,,,,,,,,,,,,,,,,,,,,,,,,,,,,,,,,,,,,,,,,,,,,,,,,,,,,,,,,,,,,,,,,,,,,,,,SoundMST/IceDrop.wav,1,1,OLD,D,,,1,1,0.30245,0,67,67,67,1,,,,,,,,,,,,,,,,,,,,,,,,
,,,,,,,,,,,,,,5f4b8f646cc10e7481333ee4,61,2021-03-24_23h52.23.699,CombinedMST_OA,2020.2.10,Win32,60,,,,,,,,,,,,,,,,,,,,,,,,,,,,,,,,,,,,,,,,,,,,,,,,,,,,,,,,,,,,,,,,,,,,,,,,,,SoundMST/Hammer_A.wav,2,3,NEW,D,,,2,1,0.334145,0,68,68,68,1,,,,,,,,,,,,,,,,,,,,,,,,
,,,,,,,,,,,,,,5f4b8f646cc10e7481333ee4,61,2021-03-24_23h52.23.699,CombinedMST_OA,2020.2.10,Win32,60,,,,,,,,,,,,,,,,,,,,,,,,,,,,,,,,,,,,,,,,,,,,,,,,,,,,,,,,,,,,,,,,,,,,,,,,,,SoundMST/Dog_H.wav,2,3,NEW,D,,,2,1,0.356545,0,69,69,69,1,,,,,,,,,,,,,,,,,,,,,,,,
,,,,,,,,,,,,,,5f4b8f646cc10e7481333ee4,61,2021-03-24_23h52.23.699,CombinedMST_OA,2020.2.10,Win32,60,,,,,,,,,,,,,,,,,,,,,,,,,,,,,,,,,,,,,,,,,,,,,,,,,,,,,,,,,,,,,,,,,,,,,,,,,,SoundMST/Coin_E.wav,2,2,SIMILAR,D,,,2,1,0.373865,0,70,70,70,1,,,,,,,,,,,,,,,,,,,,,,,,
,,,,,,,,,,,,,,5f4b8f646cc10e7481333ee4,61,2021-03-24_23h52.23.699,CombinedMST_OA,2020.2.10,Win32,60,,,,,,,,,,,,,,,,,,,,,,,,,,,,,,,,,,,,,,,,,,,,,,,,,,,,,,,,,,,,,,,,,,,,,,,,,,SoundMST/Chime_A.wav,2,2,SIMILAR,D,,,1,0,0.31804,0,71,71,71,1,,,,,,,,,,,,,,,,,,,,,,,,
,,,,,,,,,,,,,,5f4b8f646cc10e7481333ee4,61,2021-03-24_23h52.23.699,CombinedMST_OA,2020.2.10,Win32,60,,,,,,,,,,,,,,,,,,,,,,,,,,,,,,,,,,,,,,,,,,,,,,,,,,,,,,,,,,,,,,,,,,,,,,,,,,SoundMST/Bubbles_A.wav,2,3,NEW,D,,,2,1,0.33459,0,72,72,72,1,,,,,,,,,,,,,,,,,,,,,,,,
,,,,,,,,,,,,,,5f4b8f646cc10e7481333ee4,61,2021-03-24_23h52.23.699,CombinedMST_OA,2020.2.10,Win32,60,,,,,,,,,,,,,,,,,,,,,,,,,,,,,,,,,,,,,,,,,,,,,,,,,,,,,,,,,,,,,,,,,,,,,,,,,,SoundMST/Snore_C.wav,2,3,NEW,D,,,2,1,0.490285,0,73,73,73,1,,,,,,,,,,,,,,,,,,,,,,,,
,,,,,,,,,,,,,,5f4b8f646cc10e7481333ee4,61,2021-03-24_23h52.23.699,CombinedMST_OA,2020.2.10,Win32,60,,,,,,,,,,,,,,,,,,,,,,,,,,,,,,,,,,,,,,,,,,,,,,,,,,,,,,,,,,,,,,,,,,,,,,,,,,SoundMST/Duck_B.wav,2,2,SIMILAR,D,,,2,1,0.46655,0,74,74,74,1,,,,,,,,,,,,,,,,,,,,,,,,
,,,,,,,,,,,,,,5f4b8f646cc10e7481333ee4,61,2021-03-24_23h52.23.699,CombinedMST_OA,2020.2.10,Win32,60,,,,,,,,,,,,,,,,,,,,,,,,,,,,,,,,,,,,,,,,,,,,,,,,,,,,,,,,,,,,,,,,,,,,,,,,,,SoundMST/Mosquito_B.wav,1,1,OLD,D,,,2,0,0.31756,0,75,75,75,1,,,,,,,,,,,,,,,,,,,,,,,,
,,,,,,,,,,,,,,5f4b8f646cc10e7481333ee4,61,2021-03-24_23h52.23.699,CombinedMST_OA,2020.2.10,Win32,60,,,,,,,,,,,,,,,,,,,,,,,,,,,,,,,,,,,,,,,,,,,,,,,,,,,,,,,,,,,,,,,,,,,,,,,,,,SoundMST/Footsteps_F.wav,2,2,SIMILAR,D,,,2,1,0.281005,0,76,76,76,1,,,,,,,,,,,,,,,,,,,,,,,,
,,,,,,,,,,,,,,5f4b8f646cc10e7481333ee4,61,2021-03-24_23h52.23.699,CombinedMST_OA,2020.2.10,Win32,60,,,,,,,,,,,,,,,,,,,,,,,,,,,,,,,,,,,,,,,,,,,,,,,,,,,,,,,,,,,,,,,,,,,,,,,,,,SoundMST/Cow.wav,2,3,NEW,D,,,1,0,0.352045,0,77,77,77,1,,,,,,,,,,,,,,,,,,,,,,,,
,,,,,,,,,,,,,,5f4b8f646cc10e7481333ee4,61,2021-03-24_23h52.23.699,CombinedMST_OA,2020.2.10,Win32,60,,,,,,,,,,,,,,,,,,,,,,,,,,,,,,,,,,,,,,,,,,,,,,,,,,,,,,,,,,,,,,,,,,,,,,,,,,SoundMST/Steam.wav,1,1,OLD,D,,,1,1,0.33487,0,78,78,78,1,,,,,,,,,,,,,,,,,,,,,,,,
,,,,,,,,,,,,,,5f4b8f646cc10e7481333ee4,61,2021-03-24_23h52.23.699,CombinedMST_OA,2020.2.10,Win32,60,,,,,,,,,,,,,,,,,,,,,,,,,,,,,,,,,,,,,,,,,,,,,,,,,,,,,,,,,,,,,,,,,,,,,,,,,,SoundMST/Growl_G.wav,2,3,NEW,D,,,2,1,0.30165,0,79,79,79,1,,,,,,,,,,,,,,,,,,,,,,,,
,,,,,,,,,,,,,,5f4b8f646cc10e7481333ee4,61,2021-03-24_23h52.23.699,CombinedMST_OA,2020.2.10,Win32,60,,,,,,,,,,,,,,,,,,,,,,,,,,,,,,,,,,,,,,,,,,,,,,,,,,,,,,,,,,,,,,,,,,,,,,,,,,SoundMST/Donkey.wav,1,1,OLD,D,,,1,1,0.284955,0,80,80,80,1,,,,,,,,,,,,,,,,,,,,,,,,
,,,,,,,,,,,,,,5f4b8f646cc10e7481333ee4,61,2021-03-24_23h52.23.699,CombinedMST_OA,2020.2.10,Win32,60,,,,,,,,,,,,,,,,,,,,,,,,,,,,,,,,,,,,,,,,,,,,,,,,,,,,,,,,,,,,,,,,,,,,,,,,,,SoundMST/Goat_B.wav,2,3,NEW,D,,,2,1,0.28369,0,81,81,81,1,,,,,,,,,,,,,,,,,,,,,,,,
,,,,,,,,,,,,,,5f4b8f646cc10e7481333ee4,61,2021-03-24_23h52.23.699,CombinedMST_OA,2020.2.10,Win32,60,,,,,,,,,,,,,,,,,,,,,,,,,,,,,,,,,,,,,,,,,,,,,,,,,,,,,,,,,,,,,,,,,,,,,,,,,,SoundMST/Horse.wav,1,1,OLD,D,,,1,1,0.2758,0,82,82,82,1,,,,,,,,,,,,,,,,,,,,,,,,
,,,,,,,,,,,,,,5f4b8f646cc10e7481333ee4,61,2021-03-24_23h52.23.699,CombinedMST_OA,2020.2.10,Win32,60,,,,,,,,,,,,,,,,,,,,,,,,,,,,,,,,,,,,,,,,,,,,,,,,,,,,,,,,,,,,,,,,,,,,,,,,,,SoundMST/Faucet_A.wav,2,3,NEW,D,,,2,1,0.33293,0,83,83,83,1,,,,,,,,,,,,,,,,,,,,,,,,
,,,,,,,,,,,,,,5f4b8f646cc10e7481333ee4,61,2021-03-24_23h52.23.699,CombinedMST_OA,2020.2.10,Win32,60,,,,,,,,,,,,,,,,,,,,,,,,,,,,,,,,,,,,,,,,,,,,,,,,,,,,,,,,,,,,,,,,,,,,,,,,,,SoundMST/Airhorn.wav,1,1,OLD,D,,,1,1,0.252425,0,84,84,84,1,,,,,,,,,,,,,,,,,,,,,,,,
,,,,,,,,,,,,,,5f4b8f646cc10e7481333ee4,61,2021-03-24_23h52.23.699,CombinedMST_OA,2020.2.10,Win32,60,,,,,,,,,,,,,,,,,,,,,,,,,,,,,,,,,,,,,,,,,,,,,,,,,,,,,,,,,,,,,,,,,,,,,,,,,,SoundMST/HairDryer_A.wav,2,3,NEW,D,,,2,1,0.28469,0,85,85,85,1,,,,,,,,,,,,,,,,,,,,,,,,
,,,,,,,,,,,,,,5f4b8f646cc10e7481333ee4,61,2021-03-24_23h52.23.699,CombinedMST_OA,2020.2.10,Win32,60,,,,,,,,,,,,,,,,,,,,,,,,,,,,,,,,,,,,,,,,,,,,,,,,,,,,,,,,,,,,,,,,,,,,,,,,,,SoundMST/Trumpet_B.wav,1,1,OLD,D,,,1,1,0.38831,0,86,86,86,1,,,,,,,,,,,,,,,,,,,,,,,,
,,,,,,,,,,,,,,5f4b8f646cc10e7481333ee4,61,2021-03-24_23h52.23.699,CombinedMST_OA,2020.2.10,Win32,60,,,,,,,,,,,,,,,,,,,,,,,,,,,,,,,,,,,,,,,,,,,,,,,,,,,,,,,,,,,,,,,,,,,,,,,,,,SoundMST/Baby_F.wav,2,3,NEW,D,,,2,1,0.33336,0,87,87,87,1,,,,,,,,,,,,,,,,,,,,,,,,
,,,,,,,,,,,,,,5f4b8f646cc10e7481333ee4,61,2021-03-24_23h52.23.699,CombinedMST_OA,2020.2.10,Win32,60,,,,,,,,,,,,,,,,,,,,,,,,,,,,,,,,,,,,,,,,,,,,,,,,,,,,,,,,,,,,,,,,,,,,,,,,,,SoundMST/Hammer_A.wav,1,1,OLD,D,,,2,0,0.32473,0,88,88,88,1,,,,,,,,,,,,,,,,,,,,,,,,
,,,,,,,,,,,,,,5f4b8f646cc10e7481333ee4,61,2021-03-24_23h52.23.699,CombinedMST_OA,2020.2.10,Win32,60,,,,,,,,,,,,,,,,,,,,,,,,,,,,,,,,,,,,,,,,,,,,,,,,,,,,,,,,,,,,,,,,,,,,,,,,,,SoundMST/Cuckoo_A.wav,2,3,NEW,D,,,2,1,0.28945,0,89,89,89,1,,,,,,,,,,,,,,,,,,,,,,,,
,,,,,,,,,,,,,,5f4b8f646cc10e7481333ee4,61,2021-03-24_23h52.23.699,CombinedMST_OA,2020.2.10,Win32,60,,,,,,,,,,,,,,,,,,,,,,,,,,,,,,,,,,,,,,,,,,,,,,,,,,,,,,,,,,,,,,,,,,,,,,,,,,SoundMST/Dog_F.wav,2,2,SIMILAR,D,,,2,1,0.316195,0,90,90,90,1,,,,,,,,,,,,,,,,,,,,,,,,
,,,,,,,,,,,,,,5f4b8f646cc10e7481333ee4,61,2021-03-24_23h52.23.699,CombinedMST_OA,2020.2.10,Win32,60,,,,,,,,,,,,,,,,,,,,,,,,,,,,,,,,,,,,,,,,,,,,,,,,,,,,,,,,,,,,,,,,,,,,,,,,,,SoundMST/Bubbles_B.wav,2,2,SIMILAR,D,,,2,1,0.334215,0,91,91,91,1,,,,,,,,,,,,,,,,,,,,,,,,
,,,,,,,,,,,,,,5f4b8f646cc10e7481333ee4,61,2021-03-24_23h52.23.699,CombinedMST_OA,2020.2.10,Win32,60,,,,,,,,,,,,,,,,,,,,,,,,,,,,,,,,,,,,,,,,,,,,,,,,,,,,,,,,,,,,,,,,,,,,,,,,,,SoundMST/Puff_A.wav,2,3,NEW,D,,,2,1,0.29883,0,92,92,92,1,,,,,,,,,,,,,,,,,,,,,,,,
,,,,,,,,,,,,,,5f4b8f646cc10e7481333ee4,61,2021-03-24_23h52.23.699,CombinedMST_OA,2020.2.10,Win32,60,,,,,,,,,,,,,,,,,,,,,,,,,,,,,,,,,,,,,,,,,,,,,,,,,,,,,,,,,,,,,,,,,,,,,,,,,,SoundMST/Bird_C.wav,2,3,NEW,D,,,2,1,0.281905,0,93,93,93,1,,,,,,,,,,,,,,,,,,,,,,,,
,,,,,,,,,,,,,,5f4b8f646cc10e7481333ee4,61,2021-03-24_23h52.23.699,CombinedMST_OA,2020.2.10,Win32,60,,,,,,,,,,,,,,,,,,,,,,,,,,,,,,,,,,,,,,,,,,,,,,,,,,,,,,,,,,,,,,,,,,,,,,,,,,SoundMST/Guitar_B.wav,2,3,NEW,D,,,2,1,0.30275,0,94,94,94,1,,,,,,,,,,,,,,,,,,,,,,,,
,,,,,,,,,,,,,,5f4b8f646cc10e7481333ee4,61,2021-03-24_23h52.23.699,CombinedMST_OA,2020.2.10,Win32,60,,,,,,,,,,,,,,,,,,,,,,,,,,,,,,,,,,,,,,,,,,,,,,,,,,,,,,,,,,,,,,,,,,,,,,,,,,SoundMST/Snore_E.wav,2,2,SIMILAR,D,,,2,1,0.235395,0,95,95,95,1,,,,,,,,,,,,,,,,,,,,,,,,
,,,,,,,,,,,,,,5f4b8f646cc10e7481333ee4,61,2021-03-24_23h52.23.699,CombinedMST_OA,2020.2.10,Win32,60,,,,,,,,,,,,,,,,,,,,,,,,,,,,,,,,,,,,,,,,,,,,,,,,,,,,,,,,,,,,,,,,,,,,,,,,,,SoundMST/Wind_B.wav,2,3,NEW,D,,,2,1,0.373435,0,96,96,96,1,,,,,,,,,,,,,,,,,,,,,,,,
,,,,,,,,,,,,,,5f4b8f646cc10e7481333ee4,61,2021-03-24_23h52.23.699,CombinedMST_OA,2020.2.10,Win32,60,,,,,,,,,,,,,,,,,,,,,,,,,,,,,,,,,,,,,,,,,,,,,,,,,,,,,,,,,,,,,,,,,,,,,,,,,,SoundMST/Cow.wav,1,1,OLD,D,,,1,1,0.36127,0,97,97,97,1,,,,,,,,,,,,,,,,,,,,,,,,
,,,,,,,,,,,,,,5f4b8f646cc10e7481333ee4,61,2021-03-24_23h52.23.699,CombinedMST_OA,2020.2.10,Win32,60,,,,,,,,,,,,,,,,,,,,,,,,,,,,,,,,,,,,,,,,,,,,,,,,,,,,,,,,,,,,,,,,,,,,,,,,,,SoundMST/Laugh_A.wav,2,3,NEW,D,,,2,1,0.382125,0,98,98,98,1,,,,,,,,,,,,,,,,,,,,,,,,
,,,,,,,,,,,,,,5f4b8f646cc10e7481333ee4,61,2021-03-24_23h52.23.699,CombinedMST_OA,2020.2.10,Win32,60,,,,,,,,,,,,,,,,,,,,,,,,,,,,,,,,,,,,,,,,,,,,,,,,,,,,,,,,,,,,,,,,,,,,,,,,,,SoundMST/Chomp_A.wav,2,3,NEW,D,,,2,1,0.299895,0,99,99,99,1,,,,,,,,,,,,,,,,,,,,,,,,
,,,,,,,,,,,,,,5f4b8f646cc10e7481333ee4,61,2021-03-24_23h52.23.699,CombinedMST_OA,2020.2.10,Win32,60,,,,,,,,,,,,,,,,,,,,,,,,,,,,,,,,,,,,,,,,,,,,,,,,,,,,,,,,,,,,,,,,,,,,,,,,,,SoundMST/Goat_C.wav,2,2,SIMILAR,D,,,2,1,0.300015,0,100,100,100,1,,,,,,,,,,,,,,,,,,,,,,,,
,,,,,,,,,,,,,,5f4b8f646cc10e7481333ee4,61,2021-03-24_23h52.23.699,CombinedMST_OA,2020.2.10,Win32,60,,,,,,,,,,,,,,,,,,,,,,,,,,,,,,,,,,,,,,,,,,,,,,,,,,,,,,,,,,,,,,,,,,,,,,,,,,SoundMST/Chicken_A.wav,2,3,NEW,D,,,2,1,0.27589,0,101,101,101,1,,,,,,,,,,,,,,,,,,,,,,,,
,,,,,,,,,,,,,,5f4b8f646cc10e7481333ee4,61,2021-03-24_23h52.23.699,CombinedMST_OA,2020.2.10,Win32,60,,,,,,,,,,,,,,,,,,,,,,,,,,,,,,,,,,,,,,,,,,,,,,,,,,,,,,,,,,,,,,,,,,,,,,,,,,SoundMST/Thunder_A.wav,2,3,NEW,D,,,2,1,0.26935,0,102,102,102,1,,,,,,,,,,,,,,,,,,,,,,,,
,,,,,,,,,,,,,,5f4b8f646cc10e7481333ee4,61,2021-03-24_23h52.23.699,CombinedMST_OA,2020.2.10,Win32,60,,,,,,,,,,,,,,,,,,,,,,,,,,,,,,,,,,,,,,,,,,,,,,,,,,,,,,,,,,,,,,,,,,,,,,,,,,SoundMST/Faucet_C.wav,2,2,SIMILAR,D,,,2,1,0.469415,0,103,103,103,1,,,,,,,,,,,,,,,,,,,,,,,,
,,,,,,,,,,,,,,5f4b8f646cc10e7481333ee4,61,2021-03-24_23h52.23.699,CombinedMST_OA,2020.2.10,Win32,60,,,,,,,,,,,,,,,,,,,,,,,,,,,,,,,,,,,,,,,,,,,,,,,,,,,,,,,,,,,,,,,,,,,,,,,,,,SoundMST/Elephant_C.wav,2,3,NEW,D,,,1,0,0.318145,0,104,104,104,1,,,,,,,,,,,,,,,,,,,,,,,,
,,,,,,,,,,,,,,5f4b8f646cc10e7481333ee4,61,2021-03-24_23h52.23.699,CombinedMST_OA,2020.2.10,Win32,60,,,,,,,,,,,,,,,,,,,,,,,,,,,,,,,,,,,,,,,,,,,,,,,,,,,,,,,,,,,,,,,,,,,,,,,,,,SoundMST/Growl_H.wav,2,2,SIMILAR,D,,,1,0,0.30214,0,105,105,105,1,,,,,,,,,,,,,,,,,,,,,,,,
,,,,,,,,,,,,,,5f4b8f646cc10e7481333ee4,61,2021-03-24_23h52.23.699,CombinedMST_OA,2020.2.10,Win32,60,,,,,,,,,,,,,,,,,,,,,,,,,,,,,,,,,,,,,,,,,,,,,,,,,,,,,,,,,,,,,,,,,,,,,,,,,,SoundMST/Heartbeat.wav,2,3,NEW,D,,,2,1,0.309725,0,106,106,106,1,,,,,,,,,,,,,,,,,,,,,,,,
,,,,,,,,,,,,,,5f4b8f646cc10e7481333ee4,61,2021-03-24_23h52.23.699,CombinedMST_OA,2020.2.10,Win32,60,,,,,,,,,,,,,,,,,,,,,,,,,,,,,,,,,,,,,,,,,,,,,,,,,,,,,,,,,,,,,,,,,,,,,,,,,,SoundMST/Baby_E.wav,2,2,SIMILAR,D,,,2,1,0.30195,0,107,107,107,1,,,,,,,,,,,,,,,,,,,,,,,,
,,,,,,,,,,,,,,5f4b8f646cc10e7481333ee4,61,2021-03-24_23h52.23.699,CombinedMST_OA,2020.2.10,Win32,60,,,,,,,,,,,,,,,,,,,,,,,,,,,,,,,,,,,,,,,,,,,,,,,,,,,,,,,,,,,,,,,,,,,,,,,,,,SoundMST/Cough_C.wav,2,3,NEW,D,,,2,1,0.318035,0,108,108,108,1,,,,,,,,,,,,,,,,,,,,,,,,
,,,,,,,,,,,,,,5f4b8f646cc10e7481333ee4,61,2021-03-24_23h52.23.699,CombinedMST_OA,2020.2.10,Win32,60,,,,,,,,,,,,,,,,,,,,,,,,,,,,,,,,,,,,,,,,,,,,,,,,,,,,,,,,,,,,,,,,,,,,,,,,,,SoundMST/HairDryer_A.wav,1,1,OLD,D,,,2,0,0.32583,0,109,109,109,1,,,,,,,,,,,,,,,,,,,,,,,,
,,,,,,,,,,,,,,5f4b8f646cc10e7481333ee4,61,2021-03-24_23h52.23.699,CombinedMST_OA,2020.2.10,Win32,60,,,,,,,,,,,,,,,,,,,,,,,,,,,,,,,,,,,,,,,,,,,,,,,,,,,,,,,,,,,,,,,,,,,,,,,,,,SoundMST/Cello.wav,2,3,NEW,D,,,2,1,0.284715,0,110,110,110,1,,,,,,,,,,,,,,,,,,,,,,,,
,,,,,,,,,,,,,,5f4b8f646cc10e7481333ee4,61,2021-03-24_23h52.23.699,CombinedMST_OA,2020.2.10,Win32,60,,,,,,,,,,,,,,,,,,,,,,,,,,,,,,,,,,,,,,,,,,,,,,,,,,,,,,,,,,,,,,,,,,,,,,,,,,SoundMST/Cuckoo_A.wav,1,1,OLD,D,,,1,1,0.29903,0,111,111,111,1,,,,,,,,,,,,,,,,,,,,,,,,
,,,,,,,,,,,,,,5f4b8f646cc10e7481333ee4,61,2021-03-24_23h52.23.699,CombinedMST_OA,2020.2.10,Win32,60,,,,,,,,,,,,,,,,,,,,,,,,,,,,,,,,,,,,,,,,,,,,,,,,,,,,,,,,,,,,,,,,,,,,,,,,,,SoundMST/DialTone.wav,2,3,NEW,D,,,1,0,0.62072,0,112,112,112,1,,,,,,,,,,,,,,,,,,,,,,,,
,,,,,,,,,,,,,,5f4b8f646cc10e7481333ee4,61,2021-03-24_23h52.23.699,CombinedMST_OA,2020.2.10,Win32,60,,,,,,,,,,,,,,,,,,,,,,,,,,,,,,,,,,,,,,,,,,,,,,,,,,,,,,,,,,,,,,,,,,,,,,,,,,SoundMST/Bird_A.wav,2,2,SIMILAR,D,,,2,1,0.36812,0,113,113,113,1,,,,,,,,,,,,,,,,,,,,,,,,
,,,,,,,,,,,,,,5f4b8f646cc10e7481333ee4,61,2021-03-24_23h52.23.699,CombinedMST_OA,2020.2.10,Win32,60,,,,,,,,,,,,,,,,,,,,,,,,,,,,,,,,,,,,,,,,,,,,,,,,,,,,,,,,,,,,,,,,,,,,,,,,,,SoundMST/Toilet_B.wav,2,3,NEW,D,,,2,1,0.31829,0,114,114,114,1,,,,,,,,,,,,,,,,,,,,,,,,
,,,,,,,,,,,,,,5f4b8f646cc10e7481333ee4,61,2021-03-24_23h52.23.699,CombinedMST_OA,2020.2.10,Win32,60,,,,,,,,,,,,,,,,,,,,,,,,,,,,,,,,,,,,,,,,,,,,,,,,,,,,,,,,,,,,,,,,,,,,,,,,,,SoundMST/Wind_B.wav,1,1,OLD,D,,,2,0,0.272675,0,115,115,115,1,,,,,,,,,,,,,,,,,,,,,,,,
,,,,,,,,,,,,,,5f4b8f646cc10e7481333ee4,61,2021-03-24_23h52.23.699,CombinedMST_OA,2020.2.10,Win32,60,,,,,,,,,,,,,,,,,,,,,,,,,,,,,,,,,,,,,,,,,,,,,,,,,,,,,,,,,,,,,,,,,,,,,,,,,,SoundMST/Puff_A.wav,1,1,OLD,D,,,2,0,0.31965,0,116,116,116,1,,,,,,,,,,,,,,,,,,,,,,,,
,,,,,,,,,,,,,,5f4b8f646cc10e7481333ee4,61,2021-03-24_23h52.23.699,CombinedMST_OA,2020.2.10,Win32,60,,,,,,,,,,,,,,,,,,,,,,,,,,,,,,,,,,,,,,,,,,,,,,,,,,,,,,,,,,,,,,,,,,,,,,,,,,SoundMST/Laugh_D.wav,2,2,SIMILAR,D,,,2,1,0.26941,0,117,117,117,1,,,,,,,,,,,,,,,,,,,,,,,,
,,,,,,,,,,,,,,5f4b8f646cc10e7481333ee4,61,2021-03-24_23h52.23.699,CombinedMST_OA,2020.2.10,Win32,60,,,,,,,,,,,,,,,,,,,,,,,,,,,,,,,,,,,,,,,,,,,,,,,,,,,,,,,,,,,,,,,,,,,,,,,,,,SoundMST/Guitar_B.wav,1,1,OLD,D,,,1,1,0.288255,0,118,118,118,1,,,,,,,,,,,,,,,,,,,,,,,,
,,,,,,,,,,,,,,5f4b8f646cc10e7481333ee4,61,2021-03-24_23h52.23.699,CombinedMST_OA,2020.2.10,Win32,60,,,,,,,,,,,,,,,,,,,,,,,,,,,,,,,,,,,,,,,,,,,,,,,,,,,,,,,,,,,,,,,,,,,,,,,,,,SoundMST/Chomp_C.wav,2,2,SIMILAR,D,,,1,0,0.376665,0,119,119,119,1,,,,,,,,,,,,,,,,,,,,,,,,
,,,,,,,,,,,,,,5f4b8f646cc10e7481333ee4,61,2021-03-24_23h52.23.699,CombinedMST_OA,2020.2.10,Win32,60,,,,,,,,,,,,,,,,,,,,,,,,,,,,,,,,,,,,,,,,,,,,,,,,,,,,,,,,,,,,,,,,,,,,,,,,,,SoundMST/Heartbeat.wav,1,1,OLD,D,,,2,0,0.18554,0,120,120,120,1,,,,,,,,,,,,,,,,,,,,,,,,
,,,,,,,,,,,,,,5f4b8f646cc10e7481333ee4,61,2021-03-24_23h52.23.699,CombinedMST_OA,2020.2.10,Win32,60,,,,,,,,,,,,,,,,,,,,,,,,,,,,,,,,,,,,,,,,,,,,,,,,,,,,,,,,,,,,,,,,,,,,,,,,,,SoundMST/Cello.wav,1,1,OLD,D,,,2,0,0.017,0,121,121,121,1,,,,,,,,,,,,,,,,,,,,,,,,
,,,,,,,,,,,,,,5f4b8f646cc10e7481333ee4,61,2021-03-24_23h52.23.699,CombinedMST_OA,2020.2.10,Win32,60,,,,,,,,,,,,,,,,,,,,,,,,,,,,,,,,,,,,,,,,,,,,,,,,,,,,,,,,,,,,,,,,,,,,,,,,,,SoundMST/Cough_E.wav,2,2,SIMILAR,D,,,2,1,0.421565,0,122,122,122,1,,,,,,,,,,,,,,,,,,,,,,,,
,,,,,,,,,,,,,,5f4b8f646cc10e7481333ee4,61,2021-03-24_23h52.23.699,CombinedMST_OA,2020.2.10,Win32,60,,,,,,,,,,,,,,,,,,,,,,,,,,,,,,,,,,,,,,,,,,,,,,,,,,,,,,,,,,,,,,,,,,,,,,,,,,SoundMST/Chicken_A.wav,1,1,OLD,D,,,2,0,0.117415,0,123,123,123,1,,,,,,,,,,,,,,,,,,,,,,,,
,,,,,,,,,,,,,,5f4b8f646cc10e7481333ee4,61,2021-03-24_23h52.23.699,CombinedMST_OA,2020.2.10,Win32,60,,,,,,,,,,,,,,,,,,,,,,,,,,,,,,,,,,,,,,,,,,,,,,,,,,,,,,,,,,,,,,,,,,,,,,,,,,SoundMST/Thunder_A.wav,1,1,OLD,D,,,2,0,0.40176,0,124,124,124,1,,,,,,,,,,,,,,,,,,,,,,,,
,,,,,,,,,,,,,,5f4b8f646cc10e7481333ee4,61,2021-03-24_23h52.23.699,CombinedMST_OA,2020.2.10,Win32,60,,,,,,,,,,,,,,,,,,,,,,,,,,,,,,,,,,,,,,,,,,,,,,,,,,,,,,,,,,,,,,,,,,,,,,,,,,SoundMST/DialTone.wav,1,1,OLD,D,,,2,0,1.88857,0,125,125,125,1,,,,,,,,,,,,,,,,,,,,,,,,
,,,,,,,,,,,,,,5f4b8f646cc10e7481333ee4,61,2021-03-24_23h52.23.699,CombinedMST_OA,2020.2.10,Win32,60,,,,,,,,,,,,,,,,,,,,,,,,,,,,,,,,,,,,,,,,,,,,,,,,,,,,,,,,,,,,,,,,,,,,,,,,,,SoundMST/Elephant_A.wav,2,2,SIMILAR,D,,,1,0,0.339835,0,126,126,126,1,,,,,,,,,,,,,,,,,,,,,,,,
,,,,,,,,,,,,,,5f4b8f646cc10e7481333ee4,61,2021-03-24_23h52.23.699,CombinedMST_OA,2020.2.10,Win32,60,,,,,,,,,,,,,,,,,,,,,,,,,,,,,,,,,,,,,,,,,,,,,,,,,,,,,,,,,,,,,,,,,,,,,,,,,,SoundMST/Toilet_B.wav,1,1,OLD,D,,,1,1,0.28667,0,127,127,127,1,,,,,,,,,,,,,,,,,,,,,,,,
,,,,,,,,,,,,,,5f4b8f646cc10e7481333ee4,61,2021-03-24_23h52.23.699,CombinedMST_OA,2020.2.10,Win32,60,,,,,,,,,,,,,,,,,,,,,,,,,,,,,,,,,,,,,,,,,,,,,,,,,,,,,,,,,,,,,,,,,,,,,,,,,,,,,,,,,,,,,,,,,return,13.78222,pizza ,0,0,0,0,1,,,,,,,,,,,,,,,,
,,,,,,,,,,,,,,5f4b8f646cc10e7481333ee4,61,2021-03-24_23h52.23.699,CombinedMST_OA,2020.2.10,Win32,60,,,,,,,,,,,,,,,,,,,,,,,,,,,,,,,,,,,,,,,,,,,,,,,,,,,,,,,0,1,1,1,1,0,1,,,,,,,,,,,,,,,,,,,,,,,,,,,,,,,,,,,,,,,,,,,,,,,,,,,
,,,,,,,,,,,,,,5f4b8f646cc10e7481333ee4,61,2021-03-24_23h52.23.699,CombinedMST_OA,2020.2.10,Win32,60,,,,,,,,,,,,,,,,,,,,,,,,,,,,,,,,,,,,,,,,,,,,,,,,,,,,,,,,,,,,,,,,,,,,,,,,,,,,,,,,,,,,,,,,,,,,,,,,,space,2.225225,space,15.62207,return,11.082615,motor starting,0,0,0,22,1,SoundMST/CarStart_F.wav,SIMILAR,,
,,,,,,,,,,,,,,5f4b8f646cc10e7481333ee4,61,2021-03-24_23h52.23.699,CombinedMST_OA,2020.2.10,Win32,60,,,,,,,,,,,,,,,,,,,,,,,,,,,,,,,,,,,,,,,,,,,,,,,,,,,,,,,,,,,,,,,,,,,,,,,,,,,,,,,,,,,,,,,,,,,,,,,,,,,,,return,6.287855, cow,0,1,1,71,1,SoundMST/Cow.wav,SAME,,
,,,,,,,,,,,,,,5f4b8f646cc10e7481333ee4,61,2021-03-24_23h52.23.699,CombinedMST_OA,2020.2.10,Win32,60,,,,,,,,,,,,,,,,,,,,,,,,,,,,,,,,,,,,,,,,,,,,,,,,,,,,,,,,,,,,,,,,,,,,,,,,,,,,,,,,,,,,,,,,,,,,,,,,,,,,,return,10.13557, waterbubbles,0,2,2,45,1,SoundMST/Bubbles_A.wav,SIMILAR,,
,,,,,,,,,,,,,,5f4b8f646cc10e7481333ee4,61,2021-03-24_23h52.23.699,CombinedMST_OA,2020.2.10,Win32,60,,,,,,,,,,,,,,,,,,,,,,,,,,,,,,,,,,,,,,,,,,,,,,,,,,,,,,,,,,,,,,,,,,,,,,,,,,,,,,,,,,,,,,,,,,,,,,,,,,,,,return,6.23319, elephant,0,3,3,24,1,SoundMST/Elephant_C.wav,SIMILAR,,
,,,,,,,,,,,,,,5f4b8f646cc10e7481333ee4,61,2021-03-24_23h52.23.699,CombinedMST_OA,2020.2.10,Win32,60,,,,,,,,,,,,,,,,,,,,,,,,,,,,,,,,,,,,,,,,,,,,,,,,,,,,,,,,,,,,,,,,,,,,,,,,,,,,,,,,,,,,,,,,,,,,,,,,,,,,,return,6.414145, darking dog,0,4,4,17,1,SoundMST/Dog_F.wav,SIMILAR,,
,,,,,,,,,,,,,,5f4b8f646cc10e7481333ee4,61,2021-03-24_23h52.23.699,CombinedMST_OA,2020.2.10,Win32,60,,,,,,,,,,,,,,,,,,,,,,,,,,,,,,,,,,,,,,,,,,,,,,,,,,,,,,,,,,,,,,,,,,,,,,,,,,,,,,,,,,,,,,,,,,,,,,,,,,,,,return,5.79521, elephant,0,5,5,0,1,SoundMST/Elephant_A.wav,SIMILAR,,
,,,,,,,,,,,,,,5f4b8f646cc10e7481333ee4,61,2021-03-24_23h52.23.699,CombinedMST_OA,2020.2.10,Win32,60,,,,,,,,,,,,,,,,,,,,,,,,,,,,,,,,,,,,,,,,,,,,,,,,,,,,,,,,,,,,,,,,,,,,,,,,,,,,,,,,,,,,,,,,,,,,,,,,,,,,,return,12.830625, Scottish music,0,6,6,69,1,SoundMST/Bagpipe.wav,SAME,,
,,,,,,,,,,,,,,5f4b8f646cc10e7481333ee4,61,2021-03-24_23h52.23.699,CombinedMST_OA,2020.2.10,Win32,60,,,,,,,,,,,,,,,,,,,,,,,,,,,,,,,,,,,,,,,,,,,,,,,,,,,,,,,,,,,,,,,,,,,,,,,,,,,,,,,,,,,,,,,,,,,,,,,,,,,,,return,8.01392, bad dog,0,7,7,19,1,SoundMST/Growl_H.wav,SIMILAR,,
,,,,,,,,,,,,,,5f4b8f646cc10e7481333ee4,61,2021-03-24_23h52.23.699,CombinedMST_OA,2020.2.10,Win32,60,,,,,,,,,,,,,,,,,,,,,,,,,,,,,,,,,,,,,,,,,,,,,,,,,,,,,,,,,,,,,,,,,,,,,,,,,,,,,,,,,,,,,,,,,,,,,,,,,,,,,return,4.92255, wolve,0,8,8,80,1,SoundMST/Howl.wav,SAME,,
,,,,,,,,,,,,,,5f4b8f646cc10e7481333ee4,61,2021-03-24_23h52.23.699,CombinedMST_OA,2020.2.10,Win32,60,,,,,,,,,,,,,,,,,,,,,,,,,,,,,,,,,,,,,,,,,,,,,,,,,,,,,,,,,,,,,,,,,,,,,,,,,,,,,,,,,,,,,,,,,,,,,,,,,,,,,return,10.831375, laughing people,0,9,9,33,1,SoundMST/Laugh_A.wav,SIMILAR,,
,,,,,,,,,,,,,,5f4b8f646cc10e7481333ee4,61,2021-03-24_23h52.23.699,CombinedMST_OA,2020.2.10,Win32,60,,,,,,,,,,,,,,,,,,,,,,,,,,,,,,,,,,,,,,,,,,,,,,,,,,,,,,,,,,,,,,,,,,,,,,,,,,,,,,,,,,,,,,,,,,,,,,,,,,,,,return,4.325725, frog,0,10,10,73,1,SoundMST/Bullfrog.wav,SAME,,
,,,,,,,,,,,,,,5f4b8f646cc10e7481333ee4,61,2021-03-24_23h52.23.699,CombinedMST_OA,2020.2.10,Win32,60,,,,,,,,,,,,,,,,,,,,,,,,,,,,,,,,,,,,,,,,,,,,,,,,,,,,,,,,,,,,,,,,,,,,,,,,,,,,,,,,,,,,,,,,,,,,,,,,,,,,,return,7.86422, thunder,0,11,11,48,1,SoundMST/Thunder_A.wav,SAME,,
,,,,,,,,,,,,,,5f4b8f646cc10e7481333ee4,61,2021-03-24_23h52.23.699,CombinedMST_OA,2020.2.10,Win32,60,,,,,,,,,,,,,,,,,,,,,,,,,,,,,,,,,,,,,,,,,,,,,,,,,,,,,,,,,,,,,,,,,,,,,,,,,,,,,,,,,,,,,,,,,,,,,,,,,,,,,return,8.107895, bowling pins falling,0,12,12,72,1,SoundMST/Bowlingpins.wav,SAME,,
,,,,,,,,,,,,,,5f4b8f646cc10e7481333ee4,61,2021-03-24_23h52.23.699,CombinedMST_OA,2020.2.10,Win32,60,,,,,,,,,,,,,,,,,,,,,,,,,,,,,,,,,,,,,,,,,,,,,,,,,,,,,,,,,,,,,,,,,,,,,,,,,,,,,,,,,,,,,,,,,,,,,,,,,,,,,return,10.40386, mosquito ,0,13,13,53,1,SoundMST/Mosquito_B.wav,SAME,,
,,,,,,,,,,,,,,5f4b8f646cc10e7481333ee4,61,2021-03-24_23h52.23.699,CombinedMST_OA,2020.2.10,Win32,60,,,,,,,,,,,,,,,,,,,,,,,,,,,,,,,,,,,,,,,,,,,,,,,,,,,,,,,,,,,,,,,,,,,,,,,,,,,,,,,,,,,,,,,,,,,,,,,,,,,,,return,6.912175, sirene,0,14,14,14,1,SoundMST/Siren_A.wav,SIMILAR,,
,,,,,,,,,,,,,,5f4b8f646cc10e7481333ee4,61,2021-03-24_23h52.23.699,CombinedMST_OA,2020.2.10,Win32,60,,,,,,,,,,,,,,,,,,,,,,,,,,,,,,,,,,,,,,,,,,,,,,,,,,,,,,,,,,,,,,,,,,,,,,,,,,,,,,,,,,,,,,,,,,,,,,,,,,,,,return,7.749005, counting coins,0,15,15,18,1,SoundMST/Coin_E.wav,SIMILAR,,
,,,,,,,,,,,,,,5f4b8f646cc10e7481333ee4,61,2021-03-24_23h52.23.699,CombinedMST_OA,2020.2.10,Win32,60,,,,,,,,,,,,,,,,,,,,,,,,,,,,,,,,,,,,,,,,,,,,,,,,,,,,,,,,,,,,,,,,,,,,,,,,,,,,,,,,,,,,,,,,,,,,,,,,,,,,,return,6.54825, ?,0,16,16,83,1,SoundMST/Printer.wav,SAME,,
,,,,,,,,,,,,,,5f4b8f646cc10e7481333ee4,61,2021-03-24_23h52.23.699,CombinedMST_OA,2020.2.10,Win32,60,,,,,,,,,,,,,,,,,,,,,,,,,,,,,,,,,,,,,,,,,,,,,,,,,,,,,,,,,,,,,,,,,,,,,,,,,,,,,,,,,,,,,,,,,,,,,,,,,,,,,return,6.844045, trumpet,0,17,17,63,1,SoundMST/Trumpet_B.wav,SAME,,
,,,,,,,,,,,,,,5f4b8f646cc10e7481333ee4,61,2021-03-24_23h52.23.699,CombinedMST_OA,2020.2.10,Win32,60,,,,,,,,,,,,,,,,,,,,,,,,,,,,,,,,,,,,,,,,,,,,,,,,,,,,,,,,,,,,,,,,,,,,,,,,,,,,,,,,,,,,,,,,,,,,,,,,,,,,,return,6.545565, donkey,0,18,18,87,1,SoundMST/Donkey.wav,SAME,,
,,,,,,,,,,,,,,5f4b8f646cc10e7481333ee4,61,2021-03-24_23h52.23.699,CombinedMST_OA,2020.2.10,Win32,60,,,,,,,,,,,,,,,,,,,,,,,,,,,,,,,,,,,,,,,,,,,,,,,,,,,,,,,,,,,,,,,,,,,,,,,,,,,,,,,,,,,,,,,,,,,,,,,,,,,,,return,32.89119, boots on wooden floor or staircase ,0,19,19,40,1,SoundMST/Footsteps_C.wav,SIMILAR,,
,,,,,,,,,,,,,,5f4b8f646cc10e7481333ee4,61,2021-03-24_23h52.23.699,CombinedMST_OA,2020.2.10,Win32,60,,,,,,,,,,,,,,,,,,,,,,,,,,,,,,,,,,,,,,,,,,,,,,,,,,,,,,,,,,,,,,,,,,,,,,,,,,,,,,,,,,,,,,,,,,,,,,,,,,,,,return,12.09941, handclapping's ,0,20,20,23,1,SoundMST/Clap_C.wav,SIMILAR,,
,,,,,,,,,,,,,,5f4b8f646cc10e7481333ee4,61,2021-03-24_23h52.23.699,CombinedMST_OA,2020.2.10,Win32,60,,,,,,,,,,,,,,,,,,,,,,,,,,,,,,,,,,,,,,,,,,,,,,,,,,,,,,,,,,,,,,,,,,,,,,,,,,,,,,,,,,,,,,,,,,,,,,,,,,,,,return,6.37949, whistle ,0,21,21,67,1,SoundMST/ManWhistle.wav,SAME,,
,,,,,,,,,,,,,,5f4b8f646cc10e7481333ee4,61,2021-03-24_23h52.23.699,CombinedMST_OA,2020.2.10,Win32,60,,,,,,,,,,,,,,,,,,,,,,,,,,,,,,,,,,,,,,,,,,,,,,,,,,,,,,,,,,,,,,,,,,,,,,,,,,,,,,,,,,,,,,,,,,,,,,,,,,,,,return,7.914435, camera sound,0,22,22,84,1,SoundMST/Camera.wav,SAME,,
,,,,,,,,,,,,,,5f4b8f646cc10e7481333ee4,61,2021-03-24_23h52.23.699,CombinedMST_OA,2020.2.10,Win32,60,,,,,,,,,,,,,,,,,,,,,,,,,,,,,,,,,,,,,,,,,,,,,,,,,,,,,,,,,,,,,,,,,,,,,,,,,,,,,,,,,,,,,,,,,,,,,,,,,,,,,return,5.75065, dail tone,0,23,23,54,1,SoundMST/DialTone.wav,SAME,,
,,,,,,,,,,,,,,5f4b8f646cc10e7481333ee4,61,2021-03-24_23h52.23.699,CombinedMST_OA,2020.2.10,Win32,60,,,,,,,,,,,,,,,,,,,,,,,,,,,,,,,,,,,,,,,,,,,,,,,,,,,,,,,,,,,,,,,,,,,,,,,,,,,,,,,,,,,,,,,,,,,,,,,,,,,,,return,5.00389, ?,0,24,24,70,1,SoundMST/Airhorn.wav,SAME,,
,,,,,,,,,,,,,,5f4b8f646cc10e7481333ee4,61,2021-03-24_23h52.23.699,CombinedMST_OA,2020.2.10,Win32,60,,,,,,,,,,,,,,,,,,,,,,,,,,,,,,,,,,,,,,,,,,,,,,,,,,,,,,,,,,,,,,,,,,,,,,,,,,,,,,,,,,,,,,,,,,,,,,,,,,,,,return,7.42798, ?,0,25,25,68,1,SoundMST/Cup.wav,SAME,,
,,,,,,,,,,,,,,5f4b8f646cc10e7481333ee4,61,2021-03-24_23h52.23.699,CombinedMST_OA,2020.2.10,Win32,60,,,,,,,,,,,,,,,,,,,,,,,,,,,,,,,,,,,,,,,,,,,,,,,,,,,,,,,,,,,,,,,,,,,,,,,,,,,,,,,,,,,,,,,,,,,,,,,,,,,,,return,3.645005, cat,0,26,26,65,1,SoundMST/Cat_A.wav,SAME,,
,,,,,,,,,,,,,,5f4b8f646cc10e7481333ee4,61,2021-03-24_23h52.23.699,CombinedMST_OA,2020.2.10,Win32,60,,,,,,,,,,,,,,,,,,,,,,,,,,,,,,,,,,,,,,,,,,,,,,,,,,,,,,,,,,,,,,,,,,,,,,,,,,,,,,,,,,,,,,,,,,,,,,,,,,,,,return,7.404835, church bells,0,27,27,2,1,SoundMST/Chime_A.wav,SIMILAR,,
,,,,,,,,,,,,,,5f4b8f646cc10e7481333ee4,61,2021-03-24_23h52.23.699,CombinedMST_OA,2020.2.10,Win32,60,,,,,,,,,,,,,,,,,,,,,,,,,,,,,,,,,,,,,,,,,,,,,,,,,,,,,,,,,,,,,,,,,,,,,,,,,,,,,,,,,,,,,,,,,,,,,,,,,,,,,return,4.9765, wistle,0,28,28,35,1,SoundMST/Whistle_B.wav,SIMILAR,,
,,,,,,,,,,,,,,5f4b8f646cc10e7481333ee4,61,2021-03-24_23h52.23.699,CombinedMST_OA,2020.2.10,Win32,60,,,,,,,,,,,,,,,,,,,,,,,,,,,,,,,,,,,,,,,,,,,,,,,,,,,,,,,,,,,,,,,,,,,,,,,,,,,,,,,,,,,,,,,,,,,,,,,,,,,,,return,4.559345, birds,0,29,29,31,1,SoundMST/Bird_E.wav,SIMILAR,,
,,,,,,,,,,,,,,5f4b8f646cc10e7481333ee4,61,2021-03-24_23h52.23.699,CombinedMST_OA,2020.2.10,Win32,60,,,,,,,,,,,,,,,,,,,,,,,,,,,,,,,,,,,,,,,,,,,,,,,,,,,,,,,,,,,,,,,,,,,,,,,,,,,,,,,,,,,,,,,,,,,,,,,,,,,,,return,3.904365, chicken,0,30,30,60,1,SoundMST/Chicken_A.wav,SAME,,
,,,,,,,,,,,,,,5f4b8f646cc10e7481333ee4,61,2021-03-24_23h52.23.699,CombinedMST_OA,2020.2.10,Win32,60,,,,,,,,,,,,,,,,,,,,,,,,,,,,,,,,,,,,,,,,,,,,,,,,,,,,,,,,,,,,,,,,,,,,,,,,,,,,,,,,,,,,,,,,,,,,,,,,,,,,,return,5.833475, guitar,0,31,31,59,1,SoundMST/Guitar_B.wav,SAME,,
,,,,,,,,,,,,,,5f4b8f646cc10e7481333ee4,61,2021-03-24_23h52.23.699,CombinedMST_OA,2020.2.10,Win32,60,,,,,,,,,,,,,,,,,,,,,,,,,,,,,,,,,,,,,,,,,,,,,,,,,,,,,,,,,,,,,,,,,,,,,,,,,,,,,,,,,,,,,,,,,,,,,,,,,,,,,return,11.34602, paper,0,32,32,81,1,SoundMST/PaperRip.wav,SAME,,
,,,,,,,,,,,,,,5f4b8f646cc10e7481333ee4,61,2021-03-24_23h52.23.699,CombinedMST_OA,2020.2.10,Win32,60,,,,,,,,,,,,,,,,,,,,,,,,,,,,,,,,,,,,,,,,,,,,,,,,,,,,,,,,,,,,,,,,,,,,,,,,,,,,,,,,,,,,,,,,,,,,,,,,,,,,,return,8.14933, water running,0,33,33,29,1,SoundMST/Faucet_A.wav,SIMILAR,,
,,,,,,,,,,,,,,5f4b8f646cc10e7481333ee4,61,2021-03-24_23h52.23.699,CombinedMST_OA,2020.2.10,Win32,60,,,,,,,,,,,,,,,,,,,,,,,,,,,,,,,,,,,,,,,,,,,,,,,,,,,,,,,,,,,,,,,,,,,,,,,,,,,,,,,,,,,,,,,,,,,,,,,,,,,,,return,4.722015, barking dog,0,34,34,41,1,SoundMST/Dog_H.wav,SIMILAR,,
,,,,,,,,,,,,,,5f4b8f646cc10e7481333ee4,61,2021-03-24_23h52.23.699,CombinedMST_OA,2020.2.10,Win32,60,,,,,,,,,,,,,,,,,,,,,,,,,,,,,,,,,,,,,,,,,,,,,,,,,,,,,,,,,,,,,,,,,,,,,,,,,,,,,,,,,,,,,,,,,,,,,,,,,,,,,return,4.079075, duck,0,35,35,8,1,SoundMST/Duck_D.wav,SIMILAR,,
,,,,,,,,,,,,,,5f4b8f646cc10e7481333ee4,61,2021-03-24_23h52.23.699,CombinedMST_OA,2020.2.10,Win32,60,,,,,,,,,,,,,,,,,,,,,,,,,,,,,,,,,,,,,,,,,,,,,,,,,,,,,,,,,,,,,,,,,,,,,,,,,,,,,,,,,,,,,,,,,,,,,,,,,,,,,return,7.430665, sheep ,0,36,36,20,1,SoundMST/Goat_C.wav,SIMILAR,,
,,,,,,,,,,,,,,5f4b8f646cc10e7481333ee4,61,2021-03-24_23h52.23.699,CombinedMST_OA,2020.2.10,Win32,60,,,,,,,,,,,,,,,,,,,,,,,,,,,,,,,,,,,,,,,,,,,,,,,,,,,,,,,,,,,,,,,,,,,,,,,,,,,,,,,,,,,,,,,,,,,,,,,,,,,,,return,18.34188, someone walking on wooden floor,0,37,37,16,1,SoundMST/Footsteps_F.wav,SIMILAR,,
,,,,,,,,,,,,,,5f4b8f646cc10e7481333ee4,61,2021-03-24_23h52.23.699,CombinedMST_OA,2020.2.10,Win32,60,,,,,,,,,,,,,,,,,,,,,,,,,,,,,,,,,,,,,,,,,,,,,,,,,,,,,,,,,,,,,,,,,,,,,,,,,,,,,,,,,,,,,,,,,,,,,,,,,,,,,return,10.46336, heart beeps ,0,38,38,56,1,SoundMST/Heartbeat.wav,SAME,,
,,,,,,,,,,,,,,5f4b8f646cc10e7481333ee4,61,2021-03-24_23h52.23.699,CombinedMST_OA,2020.2.10,Win32,60,,,,,,,,,,,,,,,,,,,,,,,,,,,,,,,,,,,,,,,,,,,,,,,,,,,,,,,,,,,,,,,,,,,,,,,,,,,,,,,,,,,,,,,,,,,,,,,,,,,,,return,6.738765, snorking person,0,39,39,34,1,SoundMST/Snore_D.wav,SIMILAR,,
,,,,,,,,,,,,,,5f4b8f646cc10e7481333ee4,61,2021-03-24_23h52.23.699,CombinedMST_OA,2020.2.10,Win32,60,,,,,,,,,,,,,,,,,,,,,,,,,,,,,,,,,,,,,,,,,,,,,,,,,,,,,,,,,,,,,,,,,,,,,,,,,,,,,,,,,,,,,,,,,,,,,,,,,,,,,return,7.44773, sheep,0,40,40,44,1,SoundMST/Goat_B.wav,SIMILAR,,
,,,,,,,,,,,,,,5f4b8f646cc10e7481333ee4,61,2021-03-24_23h52.23.699,CombinedMST_OA,2020.2.10,Win32,60,,,,,,,,,,,,,,,,,,,,,,,,,,,,,,,,,,,,,,,,,,,,,,,,,,,,,,,,,,,,,,,,,,,,,,,,,,,,,,,,,,,,,,,,,,,,,,,,,,,,,return,4.659165, fireworks,0,41,41,78,1,SoundMST/Fireworks.wav,SAME,,
,,,,,,,,,,,,,,5f4b8f646cc10e7481333ee4,61,2021-03-24_23h52.23.699,CombinedMST_OA,2020.2.10,Win32,60,,,,,,,,,,,,,,,,,,,,,,,,,,,,,,,,,,,,,,,,,,,,,,,,,,,,,,,,,,,,,,,,,,,,,,,,,,,,,,,,,,,,,,,,,,,,,,,,,,,,,return,9.745695, writing on blackboard,0,42,42,27,1,SoundMST/Writing_A.wav,SIMILAR,,
,,,,,,,,,,,,,,5f4b8f646cc10e7481333ee4,61,2021-03-24_23h52.23.699,CombinedMST_OA,2020.2.10,Win32,60,,,,,,,,,,,,,,,,,,,,,,,,,,,,,,,,,,,,,,,,,,,,,,,,,,,,,,,,,,,,,,,,,,,,,,,,,,,,,,,,,,,,,,,,,,,,,,,,,,,,,return,5.343665, flushing toilet,0,43,43,51,1,SoundMST/Toilet_B.wav,SAME,,
,,,,,,,,,,,,,,5f4b8f646cc10e7481333ee4,61,2021-03-24_23h52.23.699,CombinedMST_OA,2020.2.10,Win32,60,,,,,,,,,,,,,,,,,,,,,,,,,,,,,,,,,,,,,,,,,,,,,,,,,,,,,,,,,,,,,,,,,,,,,,,,,,,,,,,,,,,,,,,,,,,,,,,,,,,,,return,7.58344, water bubbles ,0,44,44,21,1,SoundMST/Bubbles_B.wav,SIMILAR,,
,,,,,,,,,,,,,,5f4b8f646cc10e7481333ee4,61,2021-03-24_23h52.23.699,CombinedMST_OA,2020.2.10,Win32,60,,,,,,,,,,,,,,,,,,,,,,,,,,,,,,,,,,,,,,,,,,,,,,,,,,,,,,,,,,,,,,,,,,,,,,,,,,,,,,,,,,,,,,,,,,,,,,,,,,,,,return,7.54671, hand capping ,0,45,45,47,1,SoundMST/Clap_B.wav,SIMILAR,,
,,,,,,,,,,,,,,5f4b8f646cc10e7481333ee4,61,2021-03-24_23h52.23.699,CombinedMST_OA,2020.2.10,Win32,60,,,,,,,,,,,,,,,,,,,,,,,,,,,,,,,,,,,,,,,,,,,,,,,,,,,,,,,,,,,,,,,,,,,,,,,,,,,,,,,,,,,,,,,,,,,,,,,,,,,,,return,5.75831, alarm bell,0,46,46,37,1,SoundMST/Phone_D.wav,SIMILAR,,
,,,,,,,,,,,,,,5f4b8f646cc10e7481333ee4,61,2021-03-24_23h52.23.699,CombinedMST_OA,2020.2.10,Win32,60,,,,,,,,,,,,,,,,,,,,,,,,,,,,,,,,,,,,,,,,,,,,,,,,,,,,,,,,,,,,,,,,,,,,,,,,,,,,,,,,,,,,,,,,,,,,,,,,,,,,,return,8.54254, coughing person,0,47,47,6,1,SoundMST/Cough_F.wav,SIMILAR,,
,,,,,,,,,,,,,,5f4b8f646cc10e7481333ee4,61,2021-03-24_23h52.23.699,CombinedMST_OA,2020.2.10,Win32,60,,,,,,,,,,,,,,,,,,,,,,,,,,,,,,,,,,,,,,,,,,,,,,,,,,,,,,,,,,,,,,,,,,,,,,,,,,,,,,,,,,,,,,,,,,,,,,,,,,,,,return,4.02227, birds,0,48,48,7,1,SoundMST/Bird_A.wav,SIMILAR,,
,,,,,,,,,,,,,,5f4b8f646cc10e7481333ee4,61,2021-03-24_23h52.23.699,CombinedMST_OA,2020.2.10,Win32,60,,,,,,,,,,,,,,,,,,,,,,,,,,,,,,,,,,,,,,,,,,,,,,,,,,,,,,,,,,,,,,,,,,,,,,,,,,,,,,,,,,,,,,,,,,,,,,,,,,,,,return,10.19909, plastic toy with sound,0,49,49,58,1,SoundMST/Puff_A.wav,SAME,,
,,,,,,,,,,,,,,5f4b8f646cc10e7481333ee4,61,2021-03-24_23h52.23.699,CombinedMST_OA,2020.2.10,Win32,60,,,,,,,,,,,,,,,,,,,,,,,,,,,,,,,,,,,,,,,,,,,,,,,,,,,,,,,,,,,,,,,,,,,,,,,,,,,,,,,,,,,,,,,,,,,,,,,,,,,,,return,9.067965, something in a glass,0,50,50,57,1,SoundMST/IceDrop.wav,SAME,,
,,,,,,,,,,,,,,5f4b8f646cc10e7481333ee4,61,2021-03-24_23h52.23.699,CombinedMST_OA,2020.2.10,Win32,60,,,,,,,,,,,,,,,,,,,,,,,,,,,,,,,,,,,,,,,,,,,,,,,,,,,,,,,,,,,,,,,,,,,,,,,,,,,,,,,,,,,,,,,,,,,,,,,,,,,,,return,14.982735, slurping water,0,51,51,66,1,SoundMST/Slurp.wav,SAME,,
,,,,,,,,,,,,,,5f4b8f646cc10e7481333ee4,61,2021-03-24_23h52.23.699,CombinedMST_OA,2020.2.10,Win32,60,,,,,,,,,,,,,,,,,,,,,,,,,,,,,,,,,,,,,,,,,,,,,,,,,,,,,,,,,,,,,,,,,,,,,,,,,,,,,,,,,,,,,,,,,,,,,,,,,,,,,return,8.303725, car thats start,0,52,52,46,1,SoundMST/CarStart_E.wav,SIMILAR,,
,,,,,,,,,,,,,,5f4b8f646cc10e7481333ee4,61,2021-03-24_23h52.23.699,CombinedMST_OA,2020.2.10,Win32,60,,,,,,,,,,,,,,,,,,,,,,,,,,,,,,,,,,,,,,,,,,,,,,,,,,,,,,,,,,,,,,,,,,,,,,,,,,,,,,,,,,,,,,,,,,,,,,,,,,,,,return,5.925665, alarm bell,0,53,53,13,1,SoundMST/Phone_E.wav,SIMILAR,,
,,,,,,,,,,,,,,5f4b8f646cc10e7481333ee4,61,2021-03-24_23h52.23.699,CombinedMST_OA,2020.2.10,Win32,60,,,,,,,,,,,,,,,,,,,,,,,,,,,,,,,,,,,,,,,,,,,,,,,,,,,,,,,,,,,,,,,,,,,,,,,,,,,,,,,,,,,,,,,,,,,,,,,,,,,,,return,5.45248, running water,0,54,54,5,1,SoundMST/Faucet_C.wav,SIMILAR,,
,,,,,,,,,,,,,,5f4b8f646cc10e7481333ee4,61,2021-03-24_23h52.23.699,CombinedMST_OA,2020.2.10,Win32,60,,,,,,,,,,,,,,,,,,,,,,,,,,,,,,,,,,,,,,,,,,,,,,,,,,,,,,,,,,,,,,,,,,,,,,,,,,,,,,,,,,,,,,,,,,,,,,,,,,,,,return,8.486005, father christmas coming,0,55,55,50,1,SoundMST/Sleighbells_B.wav,SAME,,
,,,,,,,,,,,,,,5f4b8f646cc10e7481333ee4,61,2021-03-24_23h52.23.699,CombinedMST_OA,2020.2.10,Win32,60,,,,,,,,,,,,,,,,,,,,,,,,,,,,,,,,,,,,,,,,,,,,,,,,,,,,,,,,,,,,,,,,,,,,,,,,,,,,,,,,,,,,,,,,,,,,,,,,,,,,,return,19.84448, person eating chips,0,56,56,36,1,SoundMST/Chomp_A.wav,SIMILAR,,
,,,,,,,,,,,,,,5f4b8f646cc10e7481333ee4,61,2021-03-24_23h52.23.699,CombinedMST_OA,2020.2.10,Win32,60,,,,,,,,,,,,,,,,,,,,,,,,,,,,,,,,,,,,,,,,,,,,,,,,,,,,,,,,,,,,,,,,,,,,,,,,,,,,,,,,,,,,,,,,,,,,,,,,,,,,,return,7.800935, person eating something,0,57,57,12,1,SoundMST/Chomp_C.wav,SIMILAR,,
,,,,,,,,,,,,,,5f4b8f646cc10e7481333ee4,61,2021-03-24_23h52.23.699,CombinedMST_OA,2020.2.10,Win32,60,,,,,,,,,,,,,,,,,,,,,,,,,,,,,,,,,,,,,,,,,,,,,,,,,,,,,,,,,,,,,,,,,,,,,,,,,,,,,,,,,,,,,,,,,,,,,,,,,,,,,return,6.781855, wrting in a board,0,58,58,3,1,SoundMST/Writing_C.wav,SIMILAR,,
,,,,,,,,,,,,,,5f4b8f646cc10e7481333ee4,61,2021-03-24_23h52.23.699,CombinedMST_OA,2020.2.10,Win32,60,,,,,,,,,,,,,,,,,,,,,,,,,,,,,,,,,,,,,,,,,,,,,,,,,,,,,,,,,,,,,,,,,,,,,,,,,,,,,,,,,,,,,,,,,,,,,,,,,,,,,return,7.44791, helicopter ,0,59,59,79,1,SoundMST/Helicopter_A.wav,SAME,,
,,,,,,,,,,,,,,5f4b8f646cc10e7481333ee4,61,2021-03-24_23h52.23.699,CombinedMST_OA,2020.2.10,Win32,60,,,,,,,,,,,,,,,,,,,,,,,,,,,,,,,,,,,,,,,,,,,,,,,,,,,,,,,,,,,,,,,,,,,,,,,,,,,,,,,,,,,,,,,,,,,,,,,,,,,,,return,7.07123, train,0,60,60,86,1,SoundMST/Steam.wav,SAME,,
,,,,,,,,,,,,,,5f4b8f646cc10e7481333ee4,61,2021-03-24_23h52.23.699,CombinedMST_OA,2020.2.10,Win32,60,,,,,,,,,,,,,,,,,,,,,,,,,,,,,,,,,,,,,,,,,,,,,,,,,,,,,,,,,,,,,,,,,,,,,,,,,,,,,,,,,,,,,,,,,,,,,,,,,,,,,return,9.43719, snoring person,0,61,61,10,1,SoundMST/Snore_E.wav,SIMILAR,,
,,,,,,,,,,,,,,5f4b8f646cc10e7481333ee4,61,2021-03-24_23h52.23.699,CombinedMST_OA,2020.2.10,Win32,60,,,,,,,,,,,,,,,,,,,,,,,,,,,,,,,,,,,,,,,,,,,,,,,,,,,,,,,,,,,,,,,,,,,,,,,,,,,,,,,,,,,,,,,,,,,,,,,,,,,,,return,10.40738, knocking on something,0,62,62,76,1,SoundMST/Hammer_A.wav,SAME,,
,,,,,,,,,,,,,,5f4b8f646cc10e7481333ee4,61,2021-03-24_23h52.23.699,CombinedMST_OA,2020.2.10,Win32,60,,,,,,,,,,,,,,,,,,,,,,,,,,,,,,,,,,,,,,,,,,,,,,,,,,,,,,,,,,,,,,,,,,,,,,,,,,,,,,,,,,,,,,,,,,,,,,,,,,,,,return,4.475675, sneeze,0,63,63,64,1,SoundMST/Sneeze_B.wav,SAME,,
,,,,,,,,,,,,,,5f4b8f646cc10e7481333ee4,61,2021-03-24_23h52.23.699,CombinedMST_OA,2020.2.10,Win32,60,,,,,,,,,,,,,,,,,,,,,,,,,,,,,,,,,,,,,,,,,,,,,,,,,,,,,,,,,,,,,,,,,,,,,,,,,,,,,,,,,,,,,,,,,,,,,,,,,,,,,return,7.665395, laughing people,0,64,64,9,1,SoundMST/Laugh_D.wav,SIMILAR,,
,,,,,,,,,,,,,,5f4b8f646cc10e7481333ee4,61,2021-03-24_23h52.23.699,CombinedMST_OA,2020.2.10,Win32,60,,,,,,,,,,,,,,,,,,,,,,,,,,,,,,,,,,,,,,,,,,,,,,,,,,,,,,,,,,,,,,,,,,,,,,,,,,,,,,,,,,,,,,,,,,,,,,,,,,,,,return,4.230415, bird,0,65,65,39,1,SoundMST/Crow_B.wav,SIMILAR,,
,,,,,,,,,,,,,,5f4b8f646cc10e7481333ee4,61,2021-03-24_23h52.23.699,CombinedMST_OA,2020.2.10,Win32,60,,,,,,,,,,,,,,,,,,,,,,,,,,,,,,,,,,,,,,,,,,,,,,,,,,,,,,,,,,,,,,,,,,,,,,,,,,,,,,,,,,,,,,,,,,,,,,,,,,,,,return,6.799045, phone alarm,0,66,66,52,1,SoundMST/Buzz.wav,SAME,,
,,,,,,,,,,,,,,5f4b8f646cc10e7481333ee4,61,2021-03-24_23h52.23.699,CombinedMST_OA,2020.2.10,Win32,60,,,,,,,,,,,,,,,,,,,,,,,,,,,,,,,,,,,,,,,,,,,,,,,,,,,,,,,,,,,,,,,,,,,,,,,,,,,,,,,,,,,,,,,,,,,,,,,,,,,,,return,8.8658, coughing person,0,67,67,30,1,SoundMST/Cough_D.wav,SIMILAR,,
,,,,,,,,,,,,,,5f4b8f646cc10e7481333ee4,61,2021-03-24_23h52.23.699,CombinedMST_OA,2020.2.10,Win32,60,,,,,,,,,,,,,,,,,,,,,,,,,,,,,,,,,,,,,,,,,,,,,,,,,,,,,,,,,,,,,,,,,,,,,,,,,,,,,,,,,,,,,,,,,,,,,,,,,,,,,return,7.2812, wistle,0,68,68,11,1,SoundMST/Whistle_C.wav,SIMILAR,,
,,,,,,,,,,,,,,5f4b8f646cc10e7481333ee4,61,2021-03-24_23h52.23.699,CombinedMST_OA,2020.2.10,Win32,60,,,,,,,,,,,,,,,,,,,,,,,,,,,,,,,,,,,,,,,,,,,,,,,,,,,,,,,,,,,,,,,,,,,,,,,,,,,,,,,,,,,,,,,,,,,,,,,,,,,,,return,22.047465,music instrument,0,69,69,61,1,SoundMST/Cello.wav,SAME,,
,,,,,,,,,,,,,,5f4b8f646cc10e7481333ee4,61,2021-03-24_23h52.23.699,CombinedMST_OA,2020.2.10,Win32,60,,,,,,,,,,,,,,,,,,,,,,,,,,,,,,,,,,,,,,,,,,,,,,,,,,,,,,,,,,,,,,,,,,,,,,,,,,,,,,,,,,,,,,,,,,,,,,,,,,,,,return,4.039405, piano,0,70,70,77,1,SoundMST/Piano_D.wav,SAME,,
,,,,,,,,,,,,,,5f4b8f646cc10e7481333ee4,61,2021-03-24_23h52.23.699,CombinedMST_OA,2020.2.10,Win32,60,,,,,,,,,,,,,,,,,,,,,,,,,,,,,,,,,,,,,,,,,,,,,,,,,,,,,,,,,,,,,,,,,,,,,,,,,,,,,,,,,,,,,,,,,,,,,,,,,,,,,return,8.28824, ?,0,71,71,82,1,SoundMST/Horse.wav,SAME,,
,,,,,,,,,,,,,,5f4b8f646cc10e7481333ee4,61,2021-03-24_23h52.23.699,CombinedMST_OA,2020.2.10,Win32,60,,,,,,,,,,,,,,,,,,,,,,,,,,,,,,,,,,,,,,,,,,,,,,,,,,,,,,,,,,,,,,,,,,,,,,,,,,,,,,,,,,,,,,,,,,,,,,,,,,,,,return,4.96646, baby,0,72,72,28,1,SoundMST/Baby_F.wav,SIMILAR,,
,,,,,,,,,,,,,,5f4b8f646cc10e7481333ee4,61,2021-03-24_23h52.23.699,CombinedMST_OA,2020.2.10,Win32,60,,,,,,,,,,,,,,,,,,,,,,,,,,,,,,,,,,,,,,,,,,,,,,,,,,,,,,,,,,,,,,,,,,,,,,,,,,,,,,,,,,,,,,,,,,,,,,,,,,,,,return,3.585895, ?,0,73,73,85,1,SoundMST/Droplet_B.wav,SAME,,
,,,,,,,,,,,,,,5f4b8f646cc10e7481333ee4,61,2021-03-24_23h52.23.699,CombinedMST_OA,2020.2.10,Win32,60,,,,,,,,,,,,,,,,,,,,,,,,,,,,,,,,,,,,,,,,,,,,,,,,,,,,,,,,,,,,,,,,,,,,,,,,,,,,,,,,,,,,,,,,,,,,,,,,,,,,,return,17.62175, running sparkinling water,0,74,74,25,1,SoundMST/Pour_B.wav,SIMILAR,,
,,,,,,,,,,,,,,5f4b8f646cc10e7481333ee4,61,2021-03-24_23h52.23.699,CombinedMST_OA,2020.2.10,Win32,60,,,,,,,,,,,,,,,,,,,,,,,,,,,,,,,,,,,,,,,,,,,,,,,,,,,,,,,,,,,,,,,,,,,,,,,,,,,,,,,,,,,,,,,,,,,,,,,,,,,,,return,12.39428, cuckoo cuckoo clock,0,75,75,75,1,SoundMST/Cuckoo_A.wav,SAME,,
,,,,,,,,,,,,,,5f4b8f646cc10e7481333ee4,61,2021-03-24_23h52.23.699,CombinedMST_OA,2020.2.10,Win32,60,,,,,,,,,,,,,,,,,,,,,,,,,,,,,,,,,,,,,,,,,,,,,,,,,,,,,,,,,,,,,,,,,,,,,,,,,,,,,,,,,,,,,,,,,,,,,,,,,,,,,return,6.726675, lion?,0,76,76,43,1,SoundMST/Growl_G.wav,SIMILAR,,
,,,,,,,,,,,,,,5f4b8f646cc10e7481333ee4,61,2021-03-24_23h52.23.699,CombinedMST_OA,2020.2.10,Win32,60,,,,,,,,,,,,,,,,,,,,,,,,,,,,,,,,,,,,,,,,,,,,,,,,,,,,,,,,,,,,,,,,,,,,,,,,,,,,,,,,,,,,,,,,,,,,,,,,,,,,,return,6.296685, hairdryer,0,77,77,74,1,SoundMST/HairDryer_A.wav,SAME,,
,,,,,,,,,,,,,,5f4b8f646cc10e7481333ee4,61,2021-03-24_23h52.23.699,CombinedMST_OA,2020.2.10,Win32,60,,,,,,,,,,,,,,,,,,,,,,,,,,,,,,,,,,,,,,,,,,,,,,,,,,,,,,,,,,,,,,,,,,,,,,,,,,,,,,,,,,,,,,,,,,,,,,,,,,,,,return,6.466685, typewriter,0,78,78,49,1,SoundMST/Typing.wav,SAME,,
,,,,,,,,,,,,,,5f4b8f646cc10e7481333ee4,61,2021-03-24_23h52.23.699,CombinedMST_OA,2020.2.10,Win32,60,,,,,,,,,,,,,,,,,,,,,,,,,,,,,,,,,,,,,,,,,,,,,,,,,,,,,,,,,,,,,,,,,,,,,,,,,,,,,,,,,,,,,,,,,,,,,,,,,,,,,return,8.158545, airplaine coming over,0,79,79,62,1,SoundMST/Airplane_B.wav,SAME,,
,,,,,,,,,,,,,,5f4b8f646cc10e7481333ee4,61,2021-03-24_23h52.23.699,CombinedMST_OA,2020.2.10,Win32,60,,,,,,,,,,,,,,,,,,,,,,,,,,,,,,,,,,,,,,,,,,,,,,,,,,,,,,,,,,,,,,,,,,,,,,,,,,,,,,,,,,,,,,,,,,,,,,,,,,,,,return,9.93872, counting coins,0,80,80,42,1,SoundMST/Coin_D.wav,SIMILAR,,
,,,,,,,,,,,,,,5f4b8f646cc10e7481333ee4,61,2021-03-24_23h52.23.699,CombinedMST_OA,2020.2.10,Win32,60,,,,,,,,,,,,,,,,,,,,,,,,,,,,,,,,,,,,,,,,,,,,,,,,,,,,,,,,,,,,,,,,,,,,,,,,,,,,,,,,,,,,,,,,,,,,,,,,,,,,,return,6.53002, running water,0,81,81,1,1,SoundMST/Pour_C.wav,SIMILAR,,
,,,,,,,,,,,,,,5f4b8f646cc10e7481333ee4,61,2021-03-24_23h52.23.699,CombinedMST_OA,2020.2.10,Win32,60,,,,,,,,,,,,,,,,,,,,,,,,,,,,,,,,,,,,,,,,,,,,,,,,,,,,,,,,,,,,,,,,,,,,,,,,,,,,,,,,,,,,,,,,,,,,,,,,,,,,,return,4.74742, duck,0,82,82,32,1,SoundMST/Duck_C.wav,SIMILAR,,
,,,,,,,,,,,,,,5f4b8f646cc10e7481333ee4,61,2021-03-24_23h52.23.699,CombinedMST_OA,2020.2.10,Win32,60,,,,,,,,,,,,,,,,,,,,,,,,,,,,,,,,,,,,,,,,,,,,,,,,,,,,,,,,,,,,,,,,,,,,,,,,,,,,,,,,,,,,,,,,,,,,,,,,,,,,,return,3.18374, baby,0,83,83,4,1,SoundMST/Baby_E.wav,SIMILAR,,
,,,,,,,,,,,,,,5f4b8f646cc10e7481333ee4,61,2021-03-24_23h52.23.699,CombinedMST_OA,2020.2.10,Win32,60,,,,,,,,,,,,,,,,,,,,,,,,,,,,,,,,,,,,,,,,,,,,,,,,,,,,,,,,,,,,,,,,,,,,,,,,,,,,,,,,,,,,,,,,,,,,,,,,,,,,,return,3.948755, wind,0,84,84,55,1,SoundMST/Wind_B.wav,SAME,,
,,,,,,,,,,,,,,5f4b8f646cc10e7481333ee4,61,2021-03-24_23h52.23.699,CombinedMST_OA,2020.2.10,Win32,60,,,,,,,,,,,,,,,,,,,,,,,,,,,,,,,,,,,,,,,,,,,,,,,,,,,,,,,,,,,,,,,,,,,,,,,,,,,,,,,,,,,,,,,,,,,,,,,,,,,,,return,7.69877, church bells,0,85,85,26,1,SoundMST/Chime_B.wav,SIMILAR,,
,,,,,,,,,,,,,,5f4b8f646cc10e7481333ee4,61,2021-03-24_23h52.23.699,CombinedMST_OA,2020.2.10,Win32,60,,,,,,,,,,,,,,,,,,,,,,,,,,,,,,,,,,,,,,,,,,,,,,,,,,,,,,,,,,,,,,,,,,,,,,,,,,,,,,,,,,,,,,,,,,,,,,,,,,,,,return,4.82232, alarm,0,86,86,38,1,SoundMST/Siren_E.wav,SIMILAR,,
,,,,,,,,,,,,,,5f4b8f646cc10e7481333ee4,61,2021-03-24_23h52.23.699,CombinedMST_OA,2020.2.10,Win32,60,,,,,,,,,,,,,,,,,,,,,,,,,,,,,,,,,,,,,,,,,,,,,,,,,,,,,,,,,,,,,,,,,,,,,,,,,,,,,,,,,,,,,,,,,,,,,,,,,,,,,return,3.789675, bird,0,87,87,15,1,SoundMST/Crow_A.wav,SIMILAR,,
,,,,,,,,,,,,,,5f4b8f646cc10e7481333ee4,61,2021-03-24_23h52.23.699,CombinedMST_OA,2020.2.10,Win32,60,,,,,,,,,,,,,,,,,,,,,,,,,,,,,,,,,,,,,,,,,,,,,,,,,,,,,,,,,,,,,,,,,,,,,,,,,,,,,,,,,,,,,,,,,,,,,,,,,,,,,,,,,,,,,,,space,409.292105
