VolumeContinueKey.keys,VolumeContinueKey.rt,HeadphoneContinueKey.keys,HeadphoneContinueKey.rt,CheckResp.keys,CheckResp.corr,CheckResp.rt,trials_3.thisRepN,trials_3.thisTrialN,trials_3.thisN,trials_3.thisIndex,trials_3.ran,File,Correct,participant,Age,date,expName,psychopyVersion,OS,frameRate,Welcome0ContKey.keys,Welcome0ContKey.rt,key_resp.keys,key_resp.rt,WelcomeSound2ContKey.keys,WelcomeSound2ContKey.rt,WelcomeContinueKey2.keys,WelcomeContinueKey2.rt,PracticeSoundKey.keys,PracticeSoundKey.corr,PracticeSoundKey.rt,SoundPracticeLoop.thisRepN,SoundPracticeLoop.thisTrialN,SoundPracticeLoop.thisN,SoundPracticeLoop.thisIndex,SoundPracticeLoop.ran,SoundMST_File,SoundCorrect,Correct2,SoundType,Trial,MSTSoundStrtKey.keys,MSTSoundStrtKey.rt,MSTSoundKey.keys,MSTSoundKey.corr,MSTSoundKey.rt,MSTSoundLoop.thisRepN,MSTSoundLoop.thisTrialN,MSTSoundLoop.thisN,MSTSoundLoop.thisIndex,MSTSoundLoop.ran,AttnCheck2Keys.keys,AttnCheck2Keys.rt,AttnCheck2Resp.text,SoundTask.thisRepN,SoundTask.thisTrialN,SoundTask.thisN,SoundTask.thisIndex,SoundTask.ran,Counterbalance.thisRepN,Counterbalance.thisTrialN,Counterbalance.thisN,Counterbalance.thisIndex,Counterbalance.ran,WordOrder,SoundOrder,ContinueResp.keys,ContinueResp.rt,Wel2ContinueKey.keys,Wel2ContinueKey.rt,Practice_resp.keys,Practice_resp.corr,Practice_resp.rt,PracticeTrials.thisRepN,PracticeTrials.thisTrialN,PracticeTrials.thisN,PracticeTrials.thisIndex,PracticeTrials.ran,SoundFile,Type,StartTast.keys,StartTast.rt,MST_resp.keys,MST_resp.corr,MST_resp.rt,trials.thisRepN,trials.thisTrialN,trials.thisN,trials.thisIndex,trials.ran,WordCorrect,Correct_type,WordType,Condition,Attn1ContKey.keys,Attn1ContKey.rt,AttnCheckResp.text,SyllblCheckContKey.keys,SyllblCheckContKey.rt,SyllblCheckResp.keys,SyllblCheckResp.corr,SyllblCheckResp.rt,trials_2.thisRepN,trials_2.thisTrialN,trials_2.thisN,trials_2.thisIndex,trials_2.ran,Target,Word1,Word2,Word3,WordTask.thisRepN,WordTask.thisTrialN,WordTask.thisN,WordTask.thisIndex,WordTask.ran,key_resp_4.keys,key_resp_4.rt,GuessSoundIntro2Cont.keys,GuessSoundIntro2Cont.rt,GSSubmit.keys,GSSubmit.rt,GSResponse.text,GuessSoundLoop.thisRepN,GuessSoundLoop.thisTrialN,GuessSoundLoop.thisN,GuessSoundLoop.thisIndex,GuessSoundLoop.ran,GS_File,GS_Type,ExitKey.keys,ExitKey.rt
space,4.681595,space,7.444895,3,1,4.445995,0,0,0,5,1,Headphone/t3_2.wav,3,5f33f5c671dbfc2622aecda4,63,2021-03-24_15h17.05.185,CombinedMST_OA,2020.2.10,Win32,60,,,,,,,,,,,,,,,,,,,,,,,,,,,,,,,,,,,,,,,,,,,,,,,,,,,,,,,,,,,,,,,,,,,,,,,,,,,,,,,,,,,,,,,,,,,,,,,,,,,,,,,,,,,,,,,,
,,,,2,1,0.618815,0,1,1,3,1,Headphone/t2_2.wav,2,5f33f5c671dbfc2622aecda4,63,2021-03-24_15h17.05.185,CombinedMST_OA,2020.2.10,Win32,60,,,,,,,,,,,,,,,,,,,,,,,,,,,,,,,,,,,,,,,,,,,,,,,,,,,,,,,,,,,,,,,,,,,,,,,,,,,,,,,,,,,,,,,,,,,,,,,,,,,,,,,,,,,,,,,,
,,,,2,1,0.40201,0,2,2,2,1,Headphone/t2_1.wav,2,5f33f5c671dbfc2622aecda4,63,2021-03-24_15h17.05.185,CombinedMST_OA,2020.2.10,Win32,60,,,,,,,,,,,,,,,,,,,,,,,,,,,,,,,,,,,,,,,,,,,,,,,,,,,,,,,,,,,,,,,,,,,,,,,,,,,,,,,,,,,,,,,,,,,,,,,,,,,,,,,,,,,,,,,,
,,,,3,1,0.39397,0,3,3,4,1,Headphone/t3_1.wav,3,5f33f5c671dbfc2622aecda4,63,2021-03-24_15h17.05.185,CombinedMST_OA,2020.2.10,Win32,60,,,,,,,,,,,,,,,,,,,,,,,,,,,,,,,,,,,,,,,,,,,,,,,,,,,,,,,,,,,,,,,,,,,,,,,,,,,,,,,,,,,,,,,,,,,,,,,,,,,,,,,,,,,,,,,,
,,,,1,1,0.41916,0,4,4,1,1,Headphone/t1_2.wav,1,5f33f5c671dbfc2622aecda4,63,2021-03-24_15h17.05.185,CombinedMST_OA,2020.2.10,Win32,60,,,,,,,,,,,,,,,,,,,,,,,,,,,,,,,,,,,,,,,,,,,,,,,,,,,,,,,,,,,,,,,,,,,,,,,,,,,,,,,,,,,,,,,,,,,,,,,,,,,,,,,,,,,,,,,,
,,,,1,1,11.924735,0,5,5,0,1,Headphone/t1_1.wav,1,5f33f5c671dbfc2622aecda4,63,2021-03-24_15h17.05.185,CombinedMST_OA,2020.2.10,Win32,60,,,,,,,,,,,,,,,,,,,,,,,,,,,,,,,,,,,,,,,,,,,,,,,,,,,,,,,,,,,,,,,,,,,,,,,,,,,,,,,,,,,,,,,,,,,,,,,,,,,,,,,,,,,,,,,,
,,,,,,,,,,,,,,5f33f5c671dbfc2622aecda4,63,2021-03-24_15h17.05.185,CombinedMST_OA,2020.2.10,Win32,60,space,4.618945,space,34.07567,space,9.38841,space,4.7294,2,1,5.09318,0,0,0,0,1,Practice/Seagull_A.wav,2,3,NEW,Practice,,,,,,,,,,,,,,,,,,,,,,,,,,,,,,,,,,,,,,,,,,,,,,,,,,,,,,,,,,,,,,,,,,,,,,,,,,,,,,,,,,,,,,,,,,,
,,,,,,,,,,,,,,5f33f5c671dbfc2622aecda4,63,2021-03-24_15h17.05.185,CombinedMST_OA,2020.2.10,Win32,60,,,,,,,,,2,1,2.31834,0,1,1,1,1,Practice/Skid_B.wav,2,3,NEW,Practice,,,,,,,,,,,,,,,,,,,,,,,,,,,,,,,,,,,,,,,,,,,,,,,,,,,,,,,,,,,,,,,,,,,,,,,,,,,,,,,,,,,,,,,,,,,
,,,,,,,,,,,,,,5f33f5c671dbfc2622aecda4,63,2021-03-24_15h17.05.185,CombinedMST_OA,2020.2.10,Win32,60,,,,,,,,,1,1,1.293005,0,2,2,2,1,Practice/Seagull_A.wav,1,1,OLD,Practice,,,,,,,,,,,,,,,,,,,,,,,,,,,,,,,,,,,,,,,,,,,,,,,,,,,,,,,,,,,,,,,,,,,,,,,,,,,,,,,,,,,,,,,,,,,
,,,,,,,,,,,,,,5f33f5c671dbfc2622aecda4,63,2021-03-24_15h17.05.185,CombinedMST_OA,2020.2.10,Win32,60,,,,,,,,,2,1,1.460895,0,3,3,3,1,Practice/Gargle_A.wav,2,3,NEW,Practice,,,,,,,,,,,,,,,,,,,,,,,,,,,,,,,,,,,,,,,,,,,,,,,,,,,,,,,,,,,,,,,,,,,,,,,,,,,,,,,,,,,,,,,,,,,
,,,,,,,,,,,,,,5f33f5c671dbfc2622aecda4,63,2021-03-24_15h17.05.185,CombinedMST_OA,2020.2.10,Win32,60,,,,,,,,,2,1,2.0165,0,4,4,4,1,Practice/Gargle_B.wav,2,2,SIMILAR,Practice,,,,,,,,,,,,,,,,,,,,,,,,,,,,,,,,,,,,,,,,,,,,,,,,,,,,,,,,,,,,,,,,,,,,,,,,,,,,,,,,,,,,,,,,,,,
,,,,,,,,,,,,,,5f33f5c671dbfc2622aecda4,63,2021-03-24_15h17.05.185,CombinedMST_OA,2020.2.10,Win32,60,,,,,,,,,,,,,,,,,SoundMST/CarStart_E.wav,2,3,NEW,C,space,4.06595,2,1,2.52413,0,0,0,0,1,,,,,,,,,,,,,,,,,,,,,,,,,,,,,,,,,,,,,,,,,,,,,,,,,,,,,,,,,,,,,,,,,,,,,,,,,,,,,,,,,
,,,,,,,,,,,,,,5f33f5c671dbfc2622aecda4,63,2021-03-24_15h17.05.185,CombinedMST_OA,2020.2.10,Win32,60,,,,,,,,,,,,,,,,,SoundMST/Bird_C.wav,2,3,NEW,C,,,2,1,2.051,0,1,1,1,1,,,,,,,,,,,,,,,,,,,,,,,,,,,,,,,,,,,,,,,,,,,,,,,,,,,,,,,,,,,,,,,,,,,,,,,,,,,,,,,,,
,,,,,,,,,,,,,,5f33f5c671dbfc2622aecda4,63,2021-03-24_15h17.05.185,CombinedMST_OA,2020.2.10,Win32,60,,,,,,,,,,,,,,,,,SoundMST/Bubbles_A.wav,2,3,NEW,C,,,2,1,1.16341,0,2,2,2,1,,,,,,,,,,,,,,,,,,,,,,,,,,,,,,,,,,,,,,,,,,,,,,,,,,,,,,,,,,,,,,,,,,,,,,,,,,,,,,,,,
,,,,,,,,,,,,,,5f33f5c671dbfc2622aecda4,63,2021-03-24_15h17.05.185,CombinedMST_OA,2020.2.10,Win32,60,,,,,,,,,,,,,,,,,SoundMST/Horse.wav,2,3,NEW,C,,,2,1,0.59186,0,3,3,3,1,,,,,,,,,,,,,,,,,,,,,,,,,,,,,,,,,,,,,,,,,,,,,,,,,,,,,,,,,,,,,,,,,,,,,,,,,,,,,,,,,
,,,,,,,,,,,,,,5f33f5c671dbfc2622aecda4,63,2021-03-24_15h17.05.185,CombinedMST_OA,2020.2.10,Win32,60,,,,,,,,,,,,,,,,,SoundMST/IceDrop.wav,2,3,NEW,C,,,2,1,0.616375,0,4,4,4,1,,,,,,,,,,,,,,,,,,,,,,,,,,,,,,,,,,,,,,,,,,,,,,,,,,,,,,,,,,,,,,,,,,,,,,,,,,,,,,,,,
,,,,,,,,,,,,,,5f33f5c671dbfc2622aecda4,63,2021-03-24_15h17.05.185,CombinedMST_OA,2020.2.10,Win32,60,,,,,,,,,,,,,,,,,SoundMST/Sleighbells_B.wav,2,3,NEW,C,,,2,1,1.11769,0,5,5,5,1,,,,,,,,,,,,,,,,,,,,,,,,,,,,,,,,,,,,,,,,,,,,,,,,,,,,,,,,,,,,,,,,,,,,,,,,,,,,,,,,,
,,,,,,,,,,,,,,5f33f5c671dbfc2622aecda4,63,2021-03-24_15h17.05.185,CombinedMST_OA,2020.2.10,Win32,60,,,,,,,,,,,,,,,,,SoundMST/Growl_G.wav,2,3,NEW,C,,,2,1,1.117485,0,6,6,6,1,,,,,,,,,,,,,,,,,,,,,,,,,,,,,,,,,,,,,,,,,,,,,,,,,,,,,,,,,,,,,,,,,,,,,,,,,,,,,,,,,
,,,,,,,,,,,,,,5f33f5c671dbfc2622aecda4,63,2021-03-24_15h17.05.185,CombinedMST_OA,2020.2.10,Win32,60,,,,,,,,,,,,,,,,,SoundMST/Chicken_A.wav,2,3,NEW,C,,,2,1,0.800945,0,7,7,7,1,,,,,,,,,,,,,,,,,,,,,,,,,,,,,,,,,,,,,,,,,,,,,,,,,,,,,,,,,,,,,,,,,,,,,,,,,,,,,,,,,
,,,,,,,,,,,,,,5f33f5c671dbfc2622aecda4,63,2021-03-24_15h17.05.185,CombinedMST_OA,2020.2.10,Win32,60,,,,,,,,,,,,,,,,,SoundMST/Slurp.wav,2,3,NEW,C,,,2,1,1.02847,0,8,8,8,1,,,,,,,,,,,,,,,,,,,,,,,,,,,,,,,,,,,,,,,,,,,,,,,,,,,,,,,,,,,,,,,,,,,,,,,,,,,,,,,,,
,,,,,,,,,,,,,,5f33f5c671dbfc2622aecda4,63,2021-03-24_15h17.05.185,CombinedMST_OA,2020.2.10,Win32,60,,,,,,,,,,,,,,,,,SoundMST/CarStart_D.wav,2,2,SIMILAR,C,,,2,1,1.19435,0,9,9,9,1,,,,,,,,,,,,,,,,,,,,,,,,,,,,,,,,,,,,,,,,,,,,,,,,,,,,,,,,,,,,,,,,,,,,,,,,,,,,,,,,,
,,,,,,,,,,,,,,5f33f5c671dbfc2622aecda4,63,2021-03-24_15h17.05.185,CombinedMST_OA,2020.2.10,Win32,60,,,,,,,,,,,,,,,,,SoundMST/Printer.wav,2,3,NEW,C,,,2,1,0.521245,0,10,10,10,1,,,,,,,,,,,,,,,,,,,,,,,,,,,,,,,,,,,,,,,,,,,,,,,,,,,,,,,,,,,,,,,,,,,,,,,,,,,,,,,,,
,,,,,,,,,,,,,,5f33f5c671dbfc2622aecda4,63,2021-03-24_15h17.05.185,CombinedMST_OA,2020.2.10,Win32,60,,,,,,,,,,,,,,,,,SoundMST/Bowlingpins.wav,2,3,NEW,C,,,2,1,0.59084,0,11,11,11,1,,,,,,,,,,,,,,,,,,,,,,,,,,,,,,,,,,,,,,,,,,,,,,,,,,,,,,,,,,,,,,,,,,,,,,,,,,,,,,,,,
,,,,,,,,,,,,,,5f33f5c671dbfc2622aecda4,63,2021-03-24_15h17.05.185,CombinedMST_OA,2020.2.10,Win32,60,,,,,,,,,,,,,,,,,SoundMST/Fireworks.wav,2,3,NEW,C,,,2,1,0.57355,0,12,12,12,1,,,,,,,,,,,,,,,,,,,,,,,,,,,,,,,,,,,,,,,,,,,,,,,,,,,,,,,,,,,,,,,,,,,,,,,,,,,,,,,,,
,,,,,,,,,,,,,,5f33f5c671dbfc2622aecda4,63,2021-03-24_15h17.05.185,CombinedMST_OA,2020.2.10,Win32,60,,,,,,,,,,,,,,,,,SoundMST/Howl.wav,2,3,NEW,C,,,2,1,0.64407,0,13,13,13,1,,,,,,,,,,,,,,,,,,,,,,,,,,,,,,,,,,,,,,,,,,,,,,,,,,,,,,,,,,,,,,,,,,,,,,,,,,,,,,,,,
,,,,,,,,,,,,,,5f33f5c671dbfc2622aecda4,63,2021-03-24_15h17.05.185,CombinedMST_OA,2020.2.10,Win32,60,,,,,,,,,,,,,,,,,SoundMST/Goat_B.wav,2,3,NEW,C,,,2,1,0.8839,0,14,14,14,1,,,,,,,,,,,,,,,,,,,,,,,,,,,,,,,,,,,,,,,,,,,,,,,,,,,,,,,,,,,,,,,,,,,,,,,,,,,,,,,,,
,,,,,,,,,,,,,,5f33f5c671dbfc2622aecda4,63,2021-03-24_15h17.05.185,CombinedMST_OA,2020.2.10,Win32,60,,,,,,,,,,,,,,,,,SoundMST/Horse.wav,1,1,OLD,C,,,2,0,0.52388,0,15,15,15,1,,,,,,,,,,,,,,,,,,,,,,,,,,,,,,,,,,,,,,,,,,,,,,,,,,,,,,,,,,,,,,,,,,,,,,,,,,,,,,,,,
,,,,,,,,,,,,,,5f33f5c671dbfc2622aecda4,63,2021-03-24_15h17.05.185,CombinedMST_OA,2020.2.10,Win32,60,,,,,,,,,,,,,,,,,SoundMST/Laugh_A.wav,2,3,NEW,C,,,2,1,0.687855,0,16,16,16,1,,,,,,,,,,,,,,,,,,,,,,,,,,,,,,,,,,,,,,,,,,,,,,,,,,,,,,,,,,,,,,,,,,,,,,,,,,,,,,,,,
,,,,,,,,,,,,,,5f33f5c671dbfc2622aecda4,63,2021-03-24_15h17.05.185,CombinedMST_OA,2020.2.10,Win32,60,,,,,,,,,,,,,,,,,SoundMST/Bubbles_B.wav,2,2,SIMILAR,C,,,2,1,0.7411,0,17,17,17,1,,,,,,,,,,,,,,,,,,,,,,,,,,,,,,,,,,,,,,,,,,,,,,,,,,,,,,,,,,,,,,,,,,,,,,,,,,,,,,,,,
,,,,,,,,,,,,,,5f33f5c671dbfc2622aecda4,63,2021-03-24_15h17.05.185,CombinedMST_OA,2020.2.10,Win32,60,,,,,,,,,,,,,,,,,SoundMST/Footsteps_C.wav,2,3,NEW,C,,,2,1,0.51067,0,18,18,18,1,,,,,,,,,,,,,,,,,,,,,,,,,,,,,,,,,,,,,,,,,,,,,,,,,,,,,,,,,,,,,,,,,,,,,,,,,,,,,,,,,
,,,,,,,,,,,,,,5f33f5c671dbfc2622aecda4,63,2021-03-24_15h17.05.185,CombinedMST_OA,2020.2.10,Win32,60,,,,,,,,,,,,,,,,,SoundMST/Duck_A.wav,2,3,NEW,C,,,2,1,0.795765,0,19,19,19,1,,,,,,,,,,,,,,,,,,,,,,,,,,,,,,,,,,,,,,,,,,,,,,,,,,,,,,,,,,,,,,,,,,,,,,,,,,,,,,,,,
,,,,,,,,,,,,,,5f33f5c671dbfc2622aecda4,63,2021-03-24_15h17.05.185,CombinedMST_OA,2020.2.10,Win32,60,,,,,,,,,,,,,,,,,SoundMST/Cow.wav,2,3,NEW,C,,,2,1,1.02232,0,20,20,20,1,,,,,,,,,,,,,,,,,,,,,,,,,,,,,,,,,,,,,,,,,,,,,,,,,,,,,,,,,,,,,,,,,,,,,,,,,,,,,,,,,
,,,,,,,,,,,,,,5f33f5c671dbfc2622aecda4,63,2021-03-24_15h17.05.185,CombinedMST_OA,2020.2.10,Win32,60,,,,,,,,,,,,,,,,,SoundMST/Airhorn.wav,2,3,NEW,C,,,2,1,0.611605,0,21,21,21,1,,,,,,,,,,,,,,,,,,,,,,,,,,,,,,,,,,,,,,,,,,,,,,,,,,,,,,,,,,,,,,,,,,,,,,,,,,,,,,,,,
,,,,,,,,,,,,,,5f33f5c671dbfc2622aecda4,63,2021-03-24_15h17.05.185,CombinedMST_OA,2020.2.10,Win32,60,,,,,,,,,,,,,,,,,SoundMST/Printer.wav,1,1,OLD,C,,,2,0,0.577905,0,22,22,22,1,,,,,,,,,,,,,,,,,,,,,,,,,,,,,,,,,,,,,,,,,,,,,,,,,,,,,,,,,,,,,,,,,,,,,,,,,,,,,,,,,
,,,,,,,,,,,,,,5f33f5c671dbfc2622aecda4,63,2021-03-24_15h17.05.185,CombinedMST_OA,2020.2.10,Win32,60,,,,,,,,,,,,,,,,,SoundMST/Sleighbells_B.wav,1,1,OLD,C,,,2,0,0.73387,0,23,23,23,1,,,,,,,,,,,,,,,,,,,,,,,,,,,,,,,,,,,,,,,,,,,,,,,,,,,,,,,,,,,,,,,,,,,,,,,,,,,,,,,,,
,,,,,,,,,,,,,,5f33f5c671dbfc2622aecda4,63,2021-03-24_15h17.05.185,CombinedMST_OA,2020.2.10,Win32,60,,,,,,,,,,,,,,,,,SoundMST/Camera.wav,2,3,NEW,C,,,2,1,1.58859,0,24,24,24,1,,,,,,,,,,,,,,,,,,,,,,,,,,,,,,,,,,,,,,,,,,,,,,,,,,,,,,,,,,,,,,,,,,,,,,,,,,,,,,,,,
,,,,,,,,,,,,,,5f33f5c671dbfc2622aecda4,63,2021-03-24_15h17.05.185,CombinedMST_OA,2020.2.10,Win32,60,,,,,,,,,,,,,,,,,SoundMST/Growl_H.wav,2,2,SIMILAR,C,,,1,0,0.496315,0,25,25,25,1,,,,,,,,,,,,,,,,,,,,,,,,,,,,,,,,,,,,,,,,,,,,,,,,,,,,,,,,,,,,,,,,,,,,,,,,,,,,,,,,,
,,,,,,,,,,,,,,5f33f5c671dbfc2622aecda4,63,2021-03-24_15h17.05.185,CombinedMST_OA,2020.2.10,Win32,60,,,,,,,,,,,,,,,,,SoundMST/Whistle_B.wav,2,3,NEW,C,,,2,1,0.734855,0,26,26,26,1,,,,,,,,,,,,,,,,,,,,,,,,,,,,,,,,,,,,,,,,,,,,,,,,,,,,,,,,,,,,,,,,,,,,,,,,,,,,,,,,,
,,,,,,,,,,,,,,5f33f5c671dbfc2622aecda4,63,2021-03-24_15h17.05.185,CombinedMST_OA,2020.2.10,Win32,60,,,,,,,,,,,,,,,,,SoundMST/Piano_D.wav,2,3,NEW,C,,,2,1,0.743895,0,27,27,27,1,,,,,,,,,,,,,,,,,,,,,,,,,,,,,,,,,,,,,,,,,,,,,,,,,,,,,,,,,,,,,,,,,,,,,,,,,,,,,,,,,
,,,,,,,,,,,,,,5f33f5c671dbfc2622aecda4,63,2021-03-24_15h17.05.185,CombinedMST_OA,2020.2.10,Win32,60,,,,,,,,,,,,,,,,,SoundMST/Coin_D.wav,2,3,NEW,C,,,2,1,0.591455,0,28,28,28,1,,,,,,,,,,,,,,,,,,,,,,,,,,,,,,,,,,,,,,,,,,,,,,,,,,,,,,,,,,,,,,,,,,,,,,,,,,,,,,,,,
,,,,,,,,,,,,,,5f33f5c671dbfc2622aecda4,63,2021-03-24_15h17.05.185,CombinedMST_OA,2020.2.10,Win32,60,,,,,,,,,,,,,,,,,SoundMST/Bird_A.wav,2,2,SIMILAR,C,,,2,1,1.3363,0,29,29,29,1,,,,,,,,,,,,,,,,,,,,,,,,,,,,,,,,,,,,,,,,,,,,,,,,,,,,,,,,,,,,,,,,,,,,,,,,,,,,,,,,,
,,,,,,,,,,,,,,5f33f5c671dbfc2622aecda4,63,2021-03-24_15h17.05.185,CombinedMST_OA,2020.2.10,Win32,60,,,,,,,,,,,,,,,,,SoundMST/PaperRip.wav,2,3,NEW,C,,,2,1,0.9425,0,30,30,30,1,,,,,,,,,,,,,,,,,,,,,,,,,,,,,,,,,,,,,,,,,,,,,,,,,,,,,,,,,,,,,,,,,,,,,,,,,,,,,,,,,
,,,,,,,,,,,,,,5f33f5c671dbfc2622aecda4,63,2021-03-24_15h17.05.185,CombinedMST_OA,2020.2.10,Win32,60,,,,,,,,,,,,,,,,,SoundMST/Slurp.wav,1,1,OLD,C,,,2,0,0.88494,0,31,31,31,1,,,,,,,,,,,,,,,,,,,,,,,,,,,,,,,,,,,,,,,,,,,,,,,,,,,,,,,,,,,,,,,,,,,,,,,,,,,,,,,,,
,,,,,,,,,,,,,,5f33f5c671dbfc2622aecda4,63,2021-03-24_15h17.05.185,CombinedMST_OA,2020.2.10,Win32,60,,,,,,,,,,,,,,,,,SoundMST/Howl.wav,1,1,OLD,C,,,1,1,0.50602,0,32,32,32,1,,,,,,,,,,,,,,,,,,,,,,,,,,,,,,,,,,,,,,,,,,,,,,,,,,,,,,,,,,,,,,,,,,,,,,,,,,,,,,,,,
,,,,,,,,,,,,,,5f33f5c671dbfc2622aecda4,63,2021-03-24_15h17.05.185,CombinedMST_OA,2020.2.10,Win32,60,,,,,,,,,,,,,,,,,SoundMST/IceDrop.wav,1,1,OLD,C,,,1,1,0.738895,0,33,33,33,1,,,,,,,,,,,,,,,,,,,,,,,,,,,,,,,,,,,,,,,,,,,,,,,,,,,,,,,,,,,,,,,,,,,,,,,,,,,,,,,,,
,,,,,,,,,,,,,,5f33f5c671dbfc2622aecda4,63,2021-03-24_15h17.05.185,CombinedMST_OA,2020.2.10,Win32,60,,,,,,,,,,,,,,,,,SoundMST/Pour_B.wav,2,3,NEW,C,,,2,1,0.653035,0,34,34,34,1,,,,,,,,,,,,,,,,,,,,,,,,,,,,,,,,,,,,,,,,,,,,,,,,,,,,,,,,,,,,,,,,,,,,,,,,,,,,,,,,,
,,,,,,,,,,,,,,5f33f5c671dbfc2622aecda4,63,2021-03-24_15h17.05.185,CombinedMST_OA,2020.2.10,Win32,60,,,,,,,,,,,,,,,,,SoundMST/Fireworks.wav,1,1,OLD,C,,,1,1,1.882335,0,35,35,35,1,,,,,,,,,,,,,,,,,,,,,,,,,,,,,,,,,,,,,,,,,,,,,,,,,,,,,,,,,,,,,,,,,,,,,,,,,,,,,,,,,
,,,,,,,,,,,,,,5f33f5c671dbfc2622aecda4,63,2021-03-24_15h17.05.185,CombinedMST_OA,2020.2.10,Win32,60,,,,,,,,,,,,,,,,,SoundMST/Footsteps_F.wav,2,2,SIMILAR,C,,,1,0,0.51874,0,36,36,36,1,,,,,,,,,,,,,,,,,,,,,,,,,,,,,,,,,,,,,,,,,,,,,,,,,,,,,,,,,,,,,,,,,,,,,,,,,,,,,,,,,
,,,,,,,,,,,,,,5f33f5c671dbfc2622aecda4,63,2021-03-24_15h17.05.185,CombinedMST_OA,2020.2.10,Win32,60,,,,,,,,,,,,,,,,,SoundMST/Chicken_A.wav,1,1,OLD,C,,,1,1,0.524355,0,37,37,37,1,,,,,,,,,,,,,,,,,,,,,,,,,,,,,,,,,,,,,,,,,,,,,,,,,,,,,,,,,,,,,,,,,,,,,,,,,,,,,,,,,
,,,,,,,,,,,,,,5f33f5c671dbfc2622aecda4,63,2021-03-24_15h17.05.185,CombinedMST_OA,2020.2.10,Win32,60,,,,,,,,,,,,,,,,,SoundMST/Bullfrog.wav,2,3,NEW,C,,,2,1,0.423705,0,38,38,38,1,,,,,,,,,,,,,,,,,,,,,,,,,,,,,,,,,,,,,,,,,,,,,,,,,,,,,,,,,,,,,,,,,,,,,,,,,,,,,,,,,
,,,,,,,,,,,,,,5f33f5c671dbfc2622aecda4,63,2021-03-24_15h17.05.185,CombinedMST_OA,2020.2.10,Win32,60,,,,,,,,,,,,,,,,,SoundMST/Bowlingpins.wav,1,1,OLD,C,,,1,1,0.80814,0,39,39,39,1,,,,,,,,,,,,,,,,,,,,,,,,,,,,,,,,,,,,,,,,,,,,,,,,,,,,,,,,,,,,,,,,,,,,,,,,,,,,,,,,,
,,,,,,,,,,,,,,5f33f5c671dbfc2622aecda4,63,2021-03-24_15h17.05.185,CombinedMST_OA,2020.2.10,Win32,60,,,,,,,,,,,,,,,,,SoundMST/Helicopter_A.wav,2,3,NEW,C,,,2,1,0.685185,0,40,40,40,1,,,,,,,,,,,,,,,,,,,,,,,,,,,,,,,,,,,,,,,,,,,,,,,,,,,,,,,,,,,,,,,,,,,,,,,,,,,,,,,,,
,,,,,,,,,,,,,,5f33f5c671dbfc2622aecda4,63,2021-03-24_15h17.05.185,CombinedMST_OA,2020.2.10,Win32,60,,,,,,,,,,,,,,,,,SoundMST/Goat_C.wav,2,2,SIMILAR,C,,,1,0,0.42614,0,41,41,41,1,,,,,,,,,,,,,,,,,,,,,,,,,,,,,,,,,,,,,,,,,,,,,,,,,,,,,,,,,,,,,,,,,,,,,,,,,,,,,,,,,
,,,,,,,,,,,,,,5f33f5c671dbfc2622aecda4,63,2021-03-24_15h17.05.185,CombinedMST_OA,2020.2.10,Win32,60,,,,,,,,,,,,,,,,,SoundMST/HairDryer_A.wav,2,3,NEW,C,,,2,1,0.20219,0,42,42,42,1,,,,,,,,,,,,,,,,,,,,,,,,,,,,,,,,,,,,,,,,,,,,,,,,,,,,,,,,,,,,,,,,,,,,,,,,,,,,,,,,,
,,,,,,,,,,,,,,5f33f5c671dbfc2622aecda4,63,2021-03-24_15h17.05.185,CombinedMST_OA,2020.2.10,Win32,60,,,,,,,,,,,,,,,,,SoundMST/Duck_B.wav,2,2,SIMILAR,C,,,1,0,0.63272,0,43,43,43,1,,,,,,,,,,,,,,,,,,,,,,,,,,,,,,,,,,,,,,,,,,,,,,,,,,,,,,,,,,,,,,,,,,,,,,,,,,,,,,,,,
,,,,,,,,,,,,,,5f33f5c671dbfc2622aecda4,63,2021-03-24_15h17.05.185,CombinedMST_OA,2020.2.10,Win32,60,,,,,,,,,,,,,,,,,SoundMST/PaperRip.wav,1,1,OLD,C,,,2,0,1.603525,0,44,44,44,1,,,,,,,,,,,,,,,,,,,,,,,,,,,,,,,,,,,,,,,,,,,,,,,,,,,,,,,,,,,,,,,,,,,,,,,,,,,,,,,,,
,,,,,,,,,,,,,,5f33f5c671dbfc2622aecda4,63,2021-03-24_15h17.05.185,CombinedMST_OA,2020.2.10,Win32,60,,,,,,,,,,,,,,,,,SoundMST/Dog_H.wav,2,3,NEW,C,,,2,1,0.517395,0,45,45,45,1,,,,,,,,,,,,,,,,,,,,,,,,,,,,,,,,,,,,,,,,,,,,,,,,,,,,,,,,,,,,,,,,,,,,,,,,,,,,,,,,,
,,,,,,,,,,,,,,5f33f5c671dbfc2622aecda4,63,2021-03-24_15h17.05.185,CombinedMST_OA,2020.2.10,Win32,60,,,,,,,,,,,,,,,,,SoundMST/Camera.wav,1,1,OLD,C,,,1,1,1.189565,0,46,46,46,1,,,,,,,,,,,,,,,,,,,,,,,,,,,,,,,,,,,,,,,,,,,,,,,,,,,,,,,,,,,,,,,,,,,,,,,,,,,,,,,,,
,,,,,,,,,,,,,,5f33f5c671dbfc2622aecda4,63,2021-03-24_15h17.05.185,CombinedMST_OA,2020.2.10,Win32,60,,,,,,,,,,,,,,,,,SoundMST/Laugh_D.wav,2,2,SIMILAR,C,,,2,1,4.98361,0,47,47,47,1,,,,,,,,,,,,,,,,,,,,,,,,,,,,,,,,,,,,,,,,,,,,,,,,,,,,,,,,,,,,,,,,,,,,,,,,,,,,,,,,,
,,,,,,,,,,,,,,5f33f5c671dbfc2622aecda4,63,2021-03-24_15h17.05.185,CombinedMST_OA,2020.2.10,Win32,60,,,,,,,,,,,,,,,,,SoundMST/Sneeze_B.wav,2,3,NEW,C,,,2,1,0.833225,0,48,48,48,1,,,,,,,,,,,,,,,,,,,,,,,,,,,,,,,,,,,,,,,,,,,,,,,,,,,,,,,,,,,,,,,,,,,,,,,,,,,,,,,,,
,,,,,,,,,,,,,,5f33f5c671dbfc2622aecda4,63,2021-03-24_15h17.05.185,CombinedMST_OA,2020.2.10,Win32,60,,,,,,,,,,,,,,,,,SoundMST/Cow.wav,1,1,OLD,C,,,1,1,0.87453,0,49,49,49,1,,,,,,,,,,,,,,,,,,,,,,,,,,,,,,,,,,,,,,,,,,,,,,,,,,,,,,,,,,,,,,,,,,,,,,,,,,,,,,,,,
,,,,,,,,,,,,,,5f33f5c671dbfc2622aecda4,63,2021-03-24_15h17.05.185,CombinedMST_OA,2020.2.10,Win32,60,,,,,,,,,,,,,,,,,SoundMST/Donkey.wav,2,3,NEW,C,,,2,1,1.016055,0,50,50,50,1,,,,,,,,,,,,,,,,,,,,,,,,,,,,,,,,,,,,,,,,,,,,,,,,,,,,,,,,,,,,,,,,,,,,,,,,,,,,,,,,,
,,,,,,,,,,,,,,5f33f5c671dbfc2622aecda4,63,2021-03-24_15h17.05.185,CombinedMST_OA,2020.2.10,Win32,60,,,,,,,,,,,,,,,,,SoundMST/Coin_E.wav,2,2,SIMILAR,C,,,2,1,0.818395,0,51,51,51,1,,,,,,,,,,,,,,,,,,,,,,,,,,,,,,,,,,,,,,,,,,,,,,,,,,,,,,,,,,,,,,,,,,,,,,,,,,,,,,,,,
,,,,,,,,,,,,,,5f33f5c671dbfc2622aecda4,63,2021-03-24_15h17.05.185,CombinedMST_OA,2020.2.10,Win32,60,,,,,,,,,,,,,,,,,SoundMST/Buzz.wav,2,3,NEW,C,,,2,1,0.73637,0,52,52,52,1,,,,,,,,,,,,,,,,,,,,,,,,,,,,,,,,,,,,,,,,,,,,,,,,,,,,,,,,,,,,,,,,,,,,,,,,,,,,,,,,,
,,,,,,,,,,,,,,5f33f5c671dbfc2622aecda4,63,2021-03-24_15h17.05.185,CombinedMST_OA,2020.2.10,Win32,60,,,,,,,,,,,,,,,,,SoundMST/Piano_D.wav,1,1,OLD,C,,,1,1,0.40906,0,53,53,53,1,,,,,,,,,,,,,,,,,,,,,,,,,,,,,,,,,,,,,,,,,,,,,,,,,,,,,,,,,,,,,,,,,,,,,,,,,,,,,,,,,
,,,,,,,,,,,,,,5f33f5c671dbfc2622aecda4,63,2021-03-24_15h17.05.185,CombinedMST_OA,2020.2.10,Win32,60,,,,,,,,,,,,,,,,,SoundMST/Hammer_A.wav,2,3,NEW,C,,,2,1,0.74985,0,54,54,54,1,,,,,,,,,,,,,,,,,,,,,,,,,,,,,,,,,,,,,,,,,,,,,,,,,,,,,,,,,,,,,,,,,,,,,,,,,,,,,,,,,
,,,,,,,,,,,,,,5f33f5c671dbfc2622aecda4,63,2021-03-24_15h17.05.185,CombinedMST_OA,2020.2.10,Win32,60,,,,,,,,,,,,,,,,,SoundMST/Airhorn.wav,1,1,OLD,C,,,1,1,0.538045,0,55,55,55,1,,,,,,,,,,,,,,,,,,,,,,,,,,,,,,,,,,,,,,,,,,,,,,,,,,,,,,,,,,,,,,,,,,,,,,,,,,,,,,,,,
,,,,,,,,,,,,,,5f33f5c671dbfc2622aecda4,63,2021-03-24_15h17.05.185,CombinedMST_OA,2020.2.10,Win32,60,,,,,,,,,,,,,,,,,SoundMST/Whistle_C.wav,2,2,SIMILAR,C,,,1,0,0.619095,0,56,56,56,1,,,,,,,,,,,,,,,,,,,,,,,,,,,,,,,,,,,,,,,,,,,,,,,,,,,,,,,,,,,,,,,,,,,,,,,,,,,,,,,,,
,,,,,,,,,,,,,,5f33f5c671dbfc2622aecda4,63,2021-03-24_15h17.05.185,CombinedMST_OA,2020.2.10,Win32,60,,,,,,,,,,,,,,,,,SoundMST/Faucet_A.wav,2,3,NEW,C,,,2,1,0.921795,0,57,57,57,1,,,,,,,,,,,,,,,,,,,,,,,,,,,,,,,,,,,,,,,,,,,,,,,,,,,,,,,,,,,,,,,,,,,,,,,,,,,,,,,,,
,,,,,,,,,,,,,,5f33f5c671dbfc2622aecda4,63,2021-03-24_15h17.05.185,CombinedMST_OA,2020.2.10,Win32,60,,,,,,,,,,,,,,,,,SoundMST/Pour_C.wav,2,2,SIMILAR,C,,,1,0,0.65245,0,58,58,58,1,,,,,,,,,,,,,,,,,,,,,,,,,,,,,,,,,,,,,,,,,,,,,,,,,,,,,,,,,,,,,,,,,,,,,,,,,,,,,,,,,
,,,,,,,,,,,,,,5f33f5c671dbfc2622aecda4,63,2021-03-24_15h17.05.185,CombinedMST_OA,2020.2.10,Win32,60,,,,,,,,,,,,,,,,,SoundMST/Crow_B.wav,2,3,NEW,C,,,2,1,1.89138,0,59,59,59,1,,,,,,,,,,,,,,,,,,,,,,,,,,,,,,,,,,,,,,,,,,,,,,,,,,,,,,,,,,,,,,,,,,,,,,,,,,,,,,,,,
,,,,,,,,,,,,,,5f33f5c671dbfc2622aecda4,63,2021-03-24_15h17.05.185,CombinedMST_OA,2020.2.10,Win32,60,,,,,,,,,,,,,,,,,SoundMST/Trumpet_B.wav,2,3,NEW,C,,,2,1,0.48288,0,60,60,60,1,,,,,,,,,,,,,,,,,,,,,,,,,,,,,,,,,,,,,,,,,,,,,,,,,,,,,,,,,,,,,,,,,,,,,,,,,,,,,,,,,
,,,,,,,,,,,,,,5f33f5c671dbfc2622aecda4,63,2021-03-24_15h17.05.185,CombinedMST_OA,2020.2.10,Win32,60,,,,,,,,,,,,,,,,,SoundMST/Bullfrog.wav,1,1,OLD,C,,,1,1,0.757575,0,61,61,61,1,,,,,,,,,,,,,,,,,,,,,,,,,,,,,,,,,,,,,,,,,,,,,,,,,,,,,,,,,,,,,,,,,,,,,,,,,,,,,,,,,
,,,,,,,,,,,,,,5f33f5c671dbfc2622aecda4,63,2021-03-24_15h17.05.185,CombinedMST_OA,2020.2.10,Win32,60,,,,,,,,,,,,,,,,,SoundMST/Helicopter_A.wav,1,1,OLD,C,,,1,1,0.522785,0,62,62,62,1,,,,,,,,,,,,,,,,,,,,,,,,,,,,,,,,,,,,,,,,,,,,,,,,,,,,,,,,,,,,,,,,,,,,,,,,,,,,,,,,,
,,,,,,,,,,,,,,5f33f5c671dbfc2622aecda4,63,2021-03-24_15h17.05.185,CombinedMST_OA,2020.2.10,Win32,60,,,,,,,,,,,,,,,,,SoundMST/Elephant_C.wav,2,3,NEW,C,,,2,1,0.43288,0,63,63,63,1,,,,,,,,,,,,,,,,,,,,,,,,,,,,,,,,,,,,,,,,,,,,,,,,,,,,,,,,,,,,,,,,,,,,,,,,,,,,,,,,,
,,,,,,,,,,,,,,5f33f5c671dbfc2622aecda4,63,2021-03-24_15h17.05.185,CombinedMST_OA,2020.2.10,Win32,60,,,,,,,,,,,,,,,,,SoundMST/Sneeze_B.wav,1,1,OLD,C,,,1,1,1.06755,0,64,64,64,1,,,,,,,,,,,,,,,,,,,,,,,,,,,,,,,,,,,,,,,,,,,,,,,,,,,,,,,,,,,,,,,,,,,,,,,,,,,,,,,,,
,,,,,,,,,,,,,,5f33f5c671dbfc2622aecda4,63,2021-03-24_15h17.05.185,CombinedMST_OA,2020.2.10,Win32,60,,,,,,,,,,,,,,,,,SoundMST/Chime_B.wav,2,3,NEW,C,,,2,1,0.376215,0,65,65,65,1,,,,,,,,,,,,,,,,,,,,,,,,,,,,,,,,,,,,,,,,,,,,,,,,,,,,,,,,,,,,,,,,,,,,,,,,,,,,,,,,,
,,,,,,,,,,,,,,5f33f5c671dbfc2622aecda4,63,2021-03-24_15h17.05.185,CombinedMST_OA,2020.2.10,Win32,60,,,,,,,,,,,,,,,,,SoundMST/Phone_D.wav,2,3,NEW,C,,,2,1,0.683915,0,66,66,66,1,,,,,,,,,,,,,,,,,,,,,,,,,,,,,,,,,,,,,,,,,,,,,,,,,,,,,,,,,,,,,,,,,,,,,,,,,,,,,,,,,
,,,,,,,,,,,,,,5f33f5c671dbfc2622aecda4,63,2021-03-24_15h17.05.185,CombinedMST_OA,2020.2.10,Win32,60,,,,,,,,,,,,,,,,,SoundMST/HairDryer_A.wav,1,1,OLD,C,,,1,1,0.643425,0,67,67,67,1,,,,,,,,,,,,,,,,,,,,,,,,,,,,,,,,,,,,,,,,,,,,,,,,,,,,,,,,,,,,,,,,,,,,,,,,,,,,,,,,,
,,,,,,,,,,,,,,5f33f5c671dbfc2622aecda4,63,2021-03-24_15h17.05.185,CombinedMST_OA,2020.2.10,Win32,60,,,,,,,,,,,,,,,,,SoundMST/Puff_A.wav,2,3,NEW,C,,,2,1,0.554355,0,68,68,68,1,,,,,,,,,,,,,,,,,,,,,,,,,,,,,,,,,,,,,,,,,,,,,,,,,,,,,,,,,,,,,,,,,,,,,,,,,,,,,,,,,
,,,,,,,,,,,,,,5f33f5c671dbfc2622aecda4,63,2021-03-24_15h17.05.185,CombinedMST_OA,2020.2.10,Win32,60,,,,,,,,,,,,,,,,,SoundMST/Dog_F.wav,2,2,SIMILAR,C,,,1,0,0.51899,0,69,69,69,1,,,,,,,,,,,,,,,,,,,,,,,,,,,,,,,,,,,,,,,,,,,,,,,,,,,,,,,,,,,,,,,,,,,,,,,,,,,,,,,,,
,,,,,,,,,,,,,,5f33f5c671dbfc2622aecda4,63,2021-03-24_15h17.05.185,CombinedMST_OA,2020.2.10,Win32,60,,,,,,,,,,,,,,,,,SoundMST/Donkey.wav,1,1,OLD,C,,,1,1,0.424635,0,70,70,70,1,,,,,,,,,,,,,,,,,,,,,,,,,,,,,,,,,,,,,,,,,,,,,,,,,,,,,,,,,,,,,,,,,,,,,,,,,,,,,,,,,
,,,,,,,,,,,,,,5f33f5c671dbfc2622aecda4,63,2021-03-24_15h17.05.185,CombinedMST_OA,2020.2.10,Win32,60,,,,,,,,,,,,,,,,,SoundMST/Toilet_B.wav,2,3,NEW,C,,,1,0,1.319475,0,71,71,71,1,,,,,,,,,,,,,,,,,,,,,,,,,,,,,,,,,,,,,,,,,,,,,,,,,,,,,,,,,,,,,,,,,,,,,,,,,,,,,,,,,
,,,,,,,,,,,,,,5f33f5c671dbfc2622aecda4,63,2021-03-24_15h17.05.185,CombinedMST_OA,2020.2.10,Win32,60,,,,,,,,,,,,,,,,,SoundMST/Writing_A.wav,2,3,NEW,C,,,2,1,0.55555,0,72,72,72,1,,,,,,,,,,,,,,,,,,,,,,,,,,,,,,,,,,,,,,,,,,,,,,,,,,,,,,,,,,,,,,,,,,,,,,,,,,,,,,,,,
,,,,,,,,,,,,,,5f33f5c671dbfc2622aecda4,63,2021-03-24_15h17.05.185,CombinedMST_OA,2020.2.10,Win32,60,,,,,,,,,,,,,,,,,SoundMST/Cello.wav,2,3,NEW,C,,,2,1,0.524255,0,73,73,73,1,,,,,,,,,,,,,,,,,,,,,,,,,,,,,,,,,,,,,,,,,,,,,,,,,,,,,,,,,,,,,,,,,,,,,,,,,,,,,,,,,
,,,,,,,,,,,,,,5f33f5c671dbfc2622aecda4,63,2021-03-24_15h17.05.185,CombinedMST_OA,2020.2.10,Win32,60,,,,,,,,,,,,,,,,,SoundMST/Crow_A.wav,2,2,SIMILAR,C,,,1,0,0.467705,0,74,74,74,1,,,,,,,,,,,,,,,,,,,,,,,,,,,,,,,,,,,,,,,,,,,,,,,,,,,,,,,,,,,,,,,,,,,,,,,,,,,,,,,,,
,,,,,,,,,,,,,,5f33f5c671dbfc2622aecda4,63,2021-03-24_15h17.05.185,CombinedMST_OA,2020.2.10,Win32,60,,,,,,,,,,,,,,,,,SoundMST/Hammer_A.wav,1,1,OLD,C,,,1,1,0.54397,0,75,75,75,1,,,,,,,,,,,,,,,,,,,,,,,,,,,,,,,,,,,,,,,,,,,,,,,,,,,,,,,,,,,,,,,,,,,,,,,,,,,,,,,,,
,,,,,,,,,,,,,,5f33f5c671dbfc2622aecda4,63,2021-03-24_15h17.05.185,CombinedMST_OA,2020.2.10,Win32,60,,,,,,,,,,,,,,,,,SoundMST/Cuckoo_A.wav,2,3,NEW,C,,,2,1,0.62654,0,76,76,76,1,,,,,,,,,,,,,,,,,,,,,,,,,,,,,,,,,,,,,,,,,,,,,,,,,,,,,,,,,,,,,,,,,,,,,,,,,,,,,,,,,
,,,,,,,,,,,,,,5f33f5c671dbfc2622aecda4,63,2021-03-24_15h17.05.185,CombinedMST_OA,2020.2.10,Win32,60,,,,,,,,,,,,,,,,,SoundMST/Buzz.wav,1,1,OLD,C,,,1,1,0.857865,0,77,77,77,1,,,,,,,,,,,,,,,,,,,,,,,,,,,,,,,,,,,,,,,,,,,,,,,,,,,,,,,,,,,,,,,,,,,,,,,,,,,,,,,,,
,,,,,,,,,,,,,,5f33f5c671dbfc2622aecda4,63,2021-03-24_15h17.05.185,CombinedMST_OA,2020.2.10,Win32,60,,,,,,,,,,,,,,,,,SoundMST/Siren_E.wav,2,3,NEW,C,,,2,1,0.586345,0,78,78,78,1,,,,,,,,,,,,,,,,,,,,,,,,,,,,,,,,,,,,,,,,,,,,,,,,,,,,,,,,,,,,,,,,,,,,,,,,,,,,,,,,,
,,,,,,,,,,,,,,5f33f5c671dbfc2622aecda4,63,2021-03-24_15h17.05.185,CombinedMST_OA,2020.2.10,Win32,60,,,,,,,,,,,,,,,,,SoundMST/Trumpet_B.wav,1,1,OLD,C,,,1,1,0.52388,0,79,79,79,1,,,,,,,,,,,,,,,,,,,,,,,,,,,,,,,,,,,,,,,,,,,,,,,,,,,,,,,,,,,,,,,,,,,,,,,,,,,,,,,,,
,,,,,,,,,,,,,,5f33f5c671dbfc2622aecda4,63,2021-03-24_15h17.05.185,CombinedMST_OA,2020.2.10,Win32,60,,,,,,,,,,,,,,,,,SoundMST/Wind_B.wav,2,3,NEW,C,,,2,1,0.517055,0,80,80,80,1,,,,,,,,,,,,,,,,,,,,,,,,,,,,,,,,,,,,,,,,,,,,,,,,,,,,,,,,,,,,,,,,,,,,,,,,,,,,,,,,,
,,,,,,,,,,,,,,5f33f5c671dbfc2622aecda4,63,2021-03-24_15h17.05.185,CombinedMST_OA,2020.2.10,Win32,60,,,,,,,,,,,,,,,,,SoundMST/Cat_A.wav,2,3,NEW,C,,,2,1,0.67599,0,81,81,81,1,,,,,,,,,,,,,,,,,,,,,,,,,,,,,,,,,,,,,,,,,,,,,,,,,,,,,,,,,,,,,,,,,,,,,,,,,,,,,,,,,
,,,,,,,,,,,,,,5f33f5c671dbfc2622aecda4,63,2021-03-24_15h17.05.185,CombinedMST_OA,2020.2.10,Win32,60,,,,,,,,,,,,,,,,,SoundMST/Phone_E.wav,2,2,SIMILAR,C,,,1,0,0.471555,0,82,82,82,1,,,,,,,,,,,,,,,,,,,,,,,,,,,,,,,,,,,,,,,,,,,,,,,,,,,,,,,,,,,,,,,,,,,,,,,,,,,,,,,,,
,,,,,,,,,,,,,,5f33f5c671dbfc2622aecda4,63,2021-03-24_15h17.05.185,CombinedMST_OA,2020.2.10,Win32,60,,,,,,,,,,,,,,,,,SoundMST/Chomp_A.wav,2,3,NEW,C,,,2,1,0.87039,0,83,83,83,1,,,,,,,,,,,,,,,,,,,,,,,,,,,,,,,,,,,,,,,,,,,,,,,,,,,,,,,,,,,,,,,,,,,,,,,,,,,,,,,,,
,,,,,,,,,,,,,,5f33f5c671dbfc2622aecda4,63,2021-03-24_15h17.05.185,CombinedMST_OA,2020.2.10,Win32,60,,,,,,,,,,,,,,,,,SoundMST/Elephant_A.wav,2,2,SIMILAR,C,,,1,0,1.61733,0,84,84,84,1,,,,,,,,,,,,,,,,,,,,,,,,,,,,,,,,,,,,,,,,,,,,,,,,,,,,,,,,,,,,,,,,,,,,,,,,,,,,,,,,,
,,,,,,,,,,,,,,5f33f5c671dbfc2622aecda4,63,2021-03-24_15h17.05.185,CombinedMST_OA,2020.2.10,Win32,60,,,,,,,,,,,,,,,,,SoundMST/Cup.wav,2,3,NEW,C,,,2,1,0.83602,0,85,85,85,1,,,,,,,,,,,,,,,,,,,,,,,,,,,,,,,,,,,,,,,,,,,,,,,,,,,,,,,,,,,,,,,,,,,,,,,,,,,,,,,,,
,,,,,,,,,,,,,,5f33f5c671dbfc2622aecda4,63,2021-03-24_15h17.05.185,CombinedMST_OA,2020.2.10,Win32,60,,,,,,,,,,,,,,,,,SoundMST/Chime_A.wav,2,2,SIMILAR,C,,,1,0,0.508505,0,86,86,86,1,,,,,,,,,,,,,,,,,,,,,,,,,,,,,,,,,,,,,,,,,,,,,,,,,,,,,,,,,,,,,,,,,,,,,,,,,,,,,,,,,
,,,,,,,,,,,,,,5f33f5c671dbfc2622aecda4,63,2021-03-24_15h17.05.185,CombinedMST_OA,2020.2.10,Win32,60,,,,,,,,,,,,,,,,,SoundMST/Droplet_B.wav,2,3,NEW,C,,,2,1,0.495025,0,87,87,87,1,,,,,,,,,,,,,,,,,,,,,,,,,,,,,,,,,,,,,,,,,,,,,,,,,,,,,,,,,,,,,,,,,,,,,,,,,,,,,,,,,
,,,,,,,,,,,,,,5f33f5c671dbfc2622aecda4,63,2021-03-24_15h17.05.185,CombinedMST_OA,2020.2.10,Win32,60,,,,,,,,,,,,,,,,,SoundMST/Faucet_C.wav,2,2,SIMILAR,C,,,2,1,1.283985,0,88,88,88,1,,,,,,,,,,,,,,,,,,,,,,,,,,,,,,,,,,,,,,,,,,,,,,,,,,,,,,,,,,,,,,,,,,,,,,,,,,,,,,,,,
,,,,,,,,,,,,,,5f33f5c671dbfc2622aecda4,63,2021-03-24_15h17.05.185,CombinedMST_OA,2020.2.10,Win32,60,,,,,,,,,,,,,,,,,SoundMST/Puff_A.wav,1,1,OLD,C,,,2,0,0.820415,0,89,89,89,1,,,,,,,,,,,,,,,,,,,,,,,,,,,,,,,,,,,,,,,,,,,,,,,,,,,,,,,,,,,,,,,,,,,,,,,,,,,,,,,,,
,,,,,,,,,,,,,,5f33f5c671dbfc2622aecda4,63,2021-03-24_15h17.05.185,CombinedMST_OA,2020.2.10,Win32,60,,,,,,,,,,,,,,,,,SoundMST/Clap_B.wav,2,3,NEW,C,,,2,1,0.40315,0,90,90,90,1,,,,,,,,,,,,,,,,,,,,,,,,,,,,,,,,,,,,,,,,,,,,,,,,,,,,,,,,,,,,,,,,,,,,,,,,,,,,,,,,,
,,,,,,,,,,,,,,5f33f5c671dbfc2622aecda4,63,2021-03-24_15h17.05.185,CombinedMST_OA,2020.2.10,Win32,60,,,,,,,,,,,,,,,,,SoundMST/Cello.wav,1,1,OLD,C,,,1,1,0.460825,0,91,91,91,1,,,,,,,,,,,,,,,,,,,,,,,,,,,,,,,,,,,,,,,,,,,,,,,,,,,,,,,,,,,,,,,,,,,,,,,,,,,,,,,,,
,,,,,,,,,,,,,,5f33f5c671dbfc2622aecda4,63,2021-03-24_15h17.05.185,CombinedMST_OA,2020.2.10,Win32,60,,,,,,,,,,,,,,,,,SoundMST/Mosquito_B.wav,2,3,NEW,C,,,2,1,0.40904,0,92,92,92,1,,,,,,,,,,,,,,,,,,,,,,,,,,,,,,,,,,,,,,,,,,,,,,,,,,,,,,,,,,,,,,,,,,,,,,,,,,,,,,,,,
,,,,,,,,,,,,,,5f33f5c671dbfc2622aecda4,63,2021-03-24_15h17.05.185,CombinedMST_OA,2020.2.10,Win32,60,,,,,,,,,,,,,,,,,SoundMST/Writing_C.wav,2,2,SIMILAR,C,,,1,0,0.52836,0,93,93,93,1,,,,,,,,,,,,,,,,,,,,,,,,,,,,,,,,,,,,,,,,,,,,,,,,,,,,,,,,,,,,,,,,,,,,,,,,,,,,,,,,,
,,,,,,,,,,,,,,5f33f5c671dbfc2622aecda4,63,2021-03-24_15h17.05.185,CombinedMST_OA,2020.2.10,Win32,60,,,,,,,,,,,,,,,,,SoundMST/Guitar_B.wav,2,3,NEW,C,,,2,1,0.75585,0,94,94,94,1,,,,,,,,,,,,,,,,,,,,,,,,,,,,,,,,,,,,,,,,,,,,,,,,,,,,,,,,,,,,,,,,,,,,,,,,,,,,,,,,,
,,,,,,,,,,,,,,5f33f5c671dbfc2622aecda4,63,2021-03-24_15h17.05.185,CombinedMST_OA,2020.2.10,Win32,60,,,,,,,,,,,,,,,,,SoundMST/Toilet_B.wav,1,1,OLD,C,,,1,1,0.603,0,95,95,95,1,,,,,,,,,,,,,,,,,,,,,,,,,,,,,,,,,,,,,,,,,,,,,,,,,,,,,,,,,,,,,,,,,,,,,,,,,,,,,,,,,
,,,,,,,,,,,,,,5f33f5c671dbfc2622aecda4,63,2021-03-24_15h17.05.185,CombinedMST_OA,2020.2.10,Win32,60,,,,,,,,,,,,,,,,,SoundMST/Bagpipe.wav,2,3,NEW,C,,,2,1,0.36227,0,96,96,96,1,,,,,,,,,,,,,,,,,,,,,,,,,,,,,,,,,,,,,,,,,,,,,,,,,,,,,,,,,,,,,,,,,,,,,,,,,,,,,,,,,
,,,,,,,,,,,,,,5f33f5c671dbfc2622aecda4,63,2021-03-24_15h17.05.185,CombinedMST_OA,2020.2.10,Win32,60,,,,,,,,,,,,,,,,,SoundMST/Cuckoo_A.wav,1,1,OLD,C,,,1,1,0.43496,0,97,97,97,1,,,,,,,,,,,,,,,,,,,,,,,,,,,,,,,,,,,,,,,,,,,,,,,,,,,,,,,,,,,,,,,,,,,,,,,,,,,,,,,,,
,,,,,,,,,,,,,,5f33f5c671dbfc2622aecda4,63,2021-03-24_15h17.05.185,CombinedMST_OA,2020.2.10,Win32,60,,,,,,,,,,,,,,,,,SoundMST/Wind_B.wav,1,1,OLD,C,,,1,1,0.43996,0,98,98,98,1,,,,,,,,,,,,,,,,,,,,,,,,,,,,,,,,,,,,,,,,,,,,,,,,,,,,,,,,,,,,,,,,,,,,,,,,,,,,,,,,,
,,,,,,,,,,,,,,5f33f5c671dbfc2622aecda4,63,2021-03-24_15h17.05.185,CombinedMST_OA,2020.2.10,Win32,60,,,,,,,,,,,,,,,,,SoundMST/Cough_C.wav,2,3,NEW,C,,,2,1,0.560255,0,99,99,99,1,,,,,,,,,,,,,,,,,,,,,,,,,,,,,,,,,,,,,,,,,,,,,,,,,,,,,,,,,,,,,,,,,,,,,,,,,,,,,,,,,
,,,,,,,,,,,,,,5f33f5c671dbfc2622aecda4,63,2021-03-24_15h17.05.185,CombinedMST_OA,2020.2.10,Win32,60,,,,,,,,,,,,,,,,,SoundMST/ManWhistle.wav,2,3,NEW,C,,,2,1,0.43465,0,100,100,100,1,,,,,,,,,,,,,,,,,,,,,,,,,,,,,,,,,,,,,,,,,,,,,,,,,,,,,,,,,,,,,,,,,,,,,,,,,,,,,,,,,
,,,,,,,,,,,,,,5f33f5c671dbfc2622aecda4,63,2021-03-24_15h17.05.185,CombinedMST_OA,2020.2.10,Win32,60,,,,,,,,,,,,,,,,,SoundMST/Chomp_C.wav,2,2,SIMILAR,C,,,1,0,1.955125,0,101,101,101,1,,,,,,,,,,,,,,,,,,,,,,,,,,,,,,,,,,,,,,,,,,,,,,,,,,,,,,,,,,,,,,,,,,,,,,,,,,,,,,,,,
,,,,,,,,,,,,,,5f33f5c671dbfc2622aecda4,63,2021-03-24_15h17.05.185,CombinedMST_OA,2020.2.10,Win32,60,,,,,,,,,,,,,,,,,SoundMST/Siren_A.wav,2,2,SIMILAR,C,,,2,1,1.441655,0,102,102,102,1,,,,,,,,,,,,,,,,,,,,,,,,,,,,,,,,,,,,,,,,,,,,,,,,,,,,,,,,,,,,,,,,,,,,,,,,,,,,,,,,,
,,,,,,,,,,,,,,5f33f5c671dbfc2622aecda4,63,2021-03-24_15h17.05.185,CombinedMST_OA,2020.2.10,Win32,60,,,,,,,,,,,,,,,,,SoundMST/Thunder_A.wav,2,3,NEW,C,,,2,1,0.33271,0,103,103,103,1,,,,,,,,,,,,,,,,,,,,,,,,,,,,,,,,,,,,,,,,,,,,,,,,,,,,,,,,,,,,,,,,,,,,,,,,,,,,,,,,,
,,,,,,,,,,,,,,5f33f5c671dbfc2622aecda4,63,2021-03-24_15h17.05.185,CombinedMST_OA,2020.2.10,Win32,60,,,,,,,,,,,,,,,,,SoundMST/Cat_A.wav,1,1,OLD,C,,,1,1,0.722835,0,104,104,104,1,,,,,,,,,,,,,,,,,,,,,,,,,,,,,,,,,,,,,,,,,,,,,,,,,,,,,,,,,,,,,,,,,,,,,,,,,,,,,,,,,
,,,,,,,,,,,,,,5f33f5c671dbfc2622aecda4,63,2021-03-24_15h17.05.185,CombinedMST_OA,2020.2.10,Win32,60,,,,,,,,,,,,,,,,,SoundMST/Snore_C.wav,2,3,NEW,C,,,2,1,0.56577,0,105,105,105,1,,,,,,,,,,,,,,,,,,,,,,,,,,,,,,,,,,,,,,,,,,,,,,,,,,,,,,,,,,,,,,,,,,,,,,,,,,,,,,,,,
,,,,,,,,,,,,,,5f33f5c671dbfc2622aecda4,63,2021-03-24_15h17.05.185,CombinedMST_OA,2020.2.10,Win32,60,,,,,,,,,,,,,,,,,SoundMST/Cup.wav,1,1,OLD,C,,,1,1,0.71141,0,106,106,106,1,,,,,,,,,,,,,,,,,,,,,,,,,,,,,,,,,,,,,,,,,,,,,,,,,,,,,,,,,,,,,,,,,,,,,,,,,,,,,,,,,
,,,,,,,,,,,,,,5f33f5c671dbfc2622aecda4,63,2021-03-24_15h17.05.185,CombinedMST_OA,2020.2.10,Win32,60,,,,,,,,,,,,,,,,,SoundMST/Baby_F.wav,2,3,NEW,C,,,2,1,0.46773,0,107,107,107,1,,,,,,,,,,,,,,,,,,,,,,,,,,,,,,,,,,,,,,,,,,,,,,,,,,,,,,,,,,,,,,,,,,,,,,,,,,,,,,,,,
,,,,,,,,,,,,,,5f33f5c671dbfc2622aecda4,63,2021-03-24_15h17.05.185,CombinedMST_OA,2020.2.10,Win32,60,,,,,,,,,,,,,,,,,SoundMST/Droplet_B.wav,1,1,OLD,C,,,2,0,2.560595,0,108,108,108,1,,,,,,,,,,,,,,,,,,,,,,,,,,,,,,,,,,,,,,,,,,,,,,,,,,,,,,,,,,,,,,,,,,,,,,,,,,,,,,,,,
,,,,,,,,,,,,,,5f33f5c671dbfc2622aecda4,63,2021-03-24_15h17.05.185,CombinedMST_OA,2020.2.10,Win32,60,,,,,,,,,,,,,,,,,SoundMST/DialTone.wav,2,3,NEW,C,,,2,1,0.521055,0,109,109,109,1,,,,,,,,,,,,,,,,,,,,,,,,,,,,,,,,,,,,,,,,,,,,,,,,,,,,,,,,,,,,,,,,,,,,,,,,,,,,,,,,,
,,,,,,,,,,,,,,5f33f5c671dbfc2622aecda4,63,2021-03-24_15h17.05.185,CombinedMST_OA,2020.2.10,Win32,60,,,,,,,,,,,,,,,,,SoundMST/Clap_C.wav,2,2,SIMILAR,C,,,1,0,0.528665,0,110,110,110,1,,,,,,,,,,,,,,,,,,,,,,,,,,,,,,,,,,,,,,,,,,,,,,,,,,,,,,,,,,,,,,,,,,,,,,,,,,,,,,,,,
,,,,,,,,,,,,,,5f33f5c671dbfc2622aecda4,63,2021-03-24_15h17.05.185,CombinedMST_OA,2020.2.10,Win32,60,,,,,,,,,,,,,,,,,SoundMST/Heartbeat.wav,2,3,NEW,C,,,2,1,1.112375,0,111,111,111,1,,,,,,,,,,,,,,,,,,,,,,,,,,,,,,,,,,,,,,,,,,,,,,,,,,,,,,,,,,,,,,,,,,,,,,,,,,,,,,,,,
,,,,,,,,,,,,,,5f33f5c671dbfc2622aecda4,63,2021-03-24_15h17.05.185,CombinedMST_OA,2020.2.10,Win32,60,,,,,,,,,,,,,,,,,SoundMST/Guitar_B.wav,1,1,OLD,C,,,1,1,0.427205,0,112,112,112,1,,,,,,,,,,,,,,,,,,,,,,,,,,,,,,,,,,,,,,,,,,,,,,,,,,,,,,,,,,,,,,,,,,,,,,,,,,,,,,,,,
,,,,,,,,,,,,,,5f33f5c671dbfc2622aecda4,63,2021-03-24_15h17.05.185,CombinedMST_OA,2020.2.10,Win32,60,,,,,,,,,,,,,,,,,SoundMST/Typing.wav,2,3,NEW,C,,,2,1,0.93861,0,113,113,113,1,,,,,,,,,,,,,,,,,,,,,,,,,,,,,,,,,,,,,,,,,,,,,,,,,,,,,,,,,,,,,,,,,,,,,,,,,,,,,,,,,
,,,,,,,,,,,,,,5f33f5c671dbfc2622aecda4,63,2021-03-24_15h17.05.185,CombinedMST_OA,2020.2.10,Win32,60,,,,,,,,,,,,,,,,,SoundMST/Mosquito_B.wav,1,1,OLD,C,,,2,0,0.644725,0,114,114,114,1,,,,,,,,,,,,,,,,,,,,,,,,,,,,,,,,,,,,,,,,,,,,,,,,,,,,,,,,,,,,,,,,,,,,,,,,,,,,,,,,,
,,,,,,,,,,,,,,5f33f5c671dbfc2622aecda4,63,2021-03-24_15h17.05.185,CombinedMST_OA,2020.2.10,Win32,60,,,,,,,,,,,,,,,,,SoundMST/Airplane_B.wav,2,3,NEW,C,,,2,1,0.39982,0,115,115,115,1,,,,,,,,,,,,,,,,,,,,,,,,,,,,,,,,,,,,,,,,,,,,,,,,,,,,,,,,,,,,,,,,,,,,,,,,,,,,,,,,,
,,,,,,,,,,,,,,5f33f5c671dbfc2622aecda4,63,2021-03-24_15h17.05.185,CombinedMST_OA,2020.2.10,Win32,60,,,,,,,,,,,,,,,,,SoundMST/ManWhistle.wav,1,1,OLD,C,,,1,1,0.41786,0,116,116,116,1,,,,,,,,,,,,,,,,,,,,,,,,,,,,,,,,,,,,,,,,,,,,,,,,,,,,,,,,,,,,,,,,,,,,,,,,,,,,,,,,,
,,,,,,,,,,,,,,5f33f5c671dbfc2622aecda4,63,2021-03-24_15h17.05.185,CombinedMST_OA,2020.2.10,Win32,60,,,,,,,,,,,,,,,,,SoundMST/Steam.wav,2,3,NEW,C,,,2,1,0.4194,0,117,117,117,1,,,,,,,,,,,,,,,,,,,,,,,,,,,,,,,,,,,,,,,,,,,,,,,,,,,,,,,,,,,,,,,,,,,,,,,,,,,,,,,,,
,,,,,,,,,,,,,,5f33f5c671dbfc2622aecda4,63,2021-03-24_15h17.05.185,CombinedMST_OA,2020.2.10,Win32,60,,,,,,,,,,,,,,,,,SoundMST/Baby_E.wav,2,2,SIMILAR,C,,,1,0,0.55504,0,118,118,118,1,,,,,,,,,,,,,,,,,,,,,,,,,,,,,,,,,,,,,,,,,,,,,,,,,,,,,,,,,,,,,,,,,,,,,,,,,,,,,,,,,
,,,,,,,,,,,,,,5f33f5c671dbfc2622aecda4,63,2021-03-24_15h17.05.185,CombinedMST_OA,2020.2.10,Win32,60,,,,,,,,,,,,,,,,,SoundMST/Bagpipe.wav,1,1,OLD,C,,,1,1,0.50619,0,119,119,119,1,,,,,,,,,,,,,,,,,,,,,,,,,,,,,,,,,,,,,,,,,,,,,,,,,,,,,,,,,,,,,,,,,,,,,,,,,,,,,,,,,
,,,,,,,,,,,,,,5f33f5c671dbfc2622aecda4,63,2021-03-24_15h17.05.185,CombinedMST_OA,2020.2.10,Win32,60,,,,,,,,,,,,,,,,,SoundMST/Cough_E.wav,2,2,SIMILAR,C,,,1,0,0.743415,0,120,120,120,1,,,,,,,,,,,,,,,,,,,,,,,,,,,,,,,,,,,,,,,,,,,,,,,,,,,,,,,,,,,,,,,,,,,,,,,,,,,,,,,,,
,,,,,,,,,,,,,,5f33f5c671dbfc2622aecda4,63,2021-03-24_15h17.05.185,CombinedMST_OA,2020.2.10,Win32,60,,,,,,,,,,,,,,,,,SoundMST/Airplane_B.wav,1,1,OLD,C,,,1,1,0.4686,0,121,121,121,1,,,,,,,,,,,,,,,,,,,,,,,,,,,,,,,,,,,,,,,,,,,,,,,,,,,,,,,,,,,,,,,,,,,,,,,,,,,,,,,,,
,,,,,,,,,,,,,,5f33f5c671dbfc2622aecda4,63,2021-03-24_15h17.05.185,CombinedMST_OA,2020.2.10,Win32,60,,,,,,,,,,,,,,,,,SoundMST/DialTone.wav,1,1,OLD,C,,,1,1,0.435465,0,122,122,122,1,,,,,,,,,,,,,,,,,,,,,,,,,,,,,,,,,,,,,,,,,,,,,,,,,,,,,,,,,,,,,,,,,,,,,,,,,,,,,,,,,
,,,,,,,,,,,,,,5f33f5c671dbfc2622aecda4,63,2021-03-24_15h17.05.185,CombinedMST_OA,2020.2.10,Win32,60,,,,,,,,,,,,,,,,,SoundMST/Thunder_A.wav,1,1,OLD,C,,,1,1,0.43325,0,123,123,123,1,,,,,,,,,,,,,,,,,,,,,,,,,,,,,,,,,,,,,,,,,,,,,,,,,,,,,,,,,,,,,,,,,,,,,,,,,,,,,,,,,
,,,,,,,,,,,,,,5f33f5c671dbfc2622aecda4,63,2021-03-24_15h17.05.185,CombinedMST_OA,2020.2.10,Win32,60,,,,,,,,,,,,,,,,,SoundMST/Typing.wav,1,1,OLD,C,,,1,1,0.58948,0,124,124,124,1,,,,,,,,,,,,,,,,,,,,,,,,,,,,,,,,,,,,,,,,,,,,,,,,,,,,,,,,,,,,,,,,,,,,,,,,,,,,,,,,,
,,,,,,,,,,,,,,5f33f5c671dbfc2622aecda4,63,2021-03-24_15h17.05.185,CombinedMST_OA,2020.2.10,Win32,60,,,,,,,,,,,,,,,,,SoundMST/Snore_E.wav,2,2,SIMILAR,C,,,1,0,0.6435,0,125,125,125,1,,,,,,,,,,,,,,,,,,,,,,,,,,,,,,,,,,,,,,,,,,,,,,,,,,,,,,,,,,,,,,,,,,,,,,,,,,,,,,,,,
,,,,,,,,,,,,,,5f33f5c671dbfc2622aecda4,63,2021-03-24_15h17.05.185,CombinedMST_OA,2020.2.10,Win32,60,,,,,,,,,,,,,,,,,SoundMST/Heartbeat.wav,1,1,OLD,C,,,1,1,1.22421,0,126,126,126,1,,,,,,,,,,,,,,,,,,,,,,,,,,,,,,,,,,,,,,,,,,,,,,,,,,,,,,,,,,,,,,,,,,,,,,,,,,,,,,,,,
,,,,,,,,,,,,,,5f33f5c671dbfc2622aecda4,63,2021-03-24_15h17.05.185,CombinedMST_OA,2020.2.10,Win32,60,,,,,,,,,,,,,,,,,SoundMST/Steam.wav,1,1,OLD,C,,,1,1,0.511095,0,127,127,127,1,,,,,,,,,,,,,,,,,,,,,,,,,,,,,,,,,,,,,,,,,,,,,,,,,,,,,,,,,,,,,,,,,,,,,,,,,,,,,,,,,
,,,,,,,,,,,,,,5f33f5c671dbfc2622aecda4,63,2021-03-24_15h17.05.185,CombinedMST_OA,2020.2.10,Win32,60,,,,,,,,,,,,,,,,,,,,,,,,,,,,,,,,return,17.868745,bread,0,0,0,0,1,,,,,,,,,,,,,,,,,,,,,,,,,,,,,,,,,,,,,,,,,,,,,,,,,,,,,,,,,,,,,,,,,,,,,,,,,
,,,,,,,,,,,,,,5f33f5c671dbfc2622aecda4,63,2021-03-24_15h17.05.185,CombinedMST_OA,2020.2.10,Win32,60,,,,,,,,,,,,,,,,,,,,,,,,,,,,,,,,,,,,,,,,0,0,0,1,1,0,1,,,,,,,,,,,,,,,,,,,,,,,,,,,,,,,,,,,,,,,,,,,,,,,,,,,,,,,,,,,,,,,,,,
,,,,,,,,,,,,,2,5f33f5c671dbfc2622aecda4,63,2021-03-24_15h17.05.185,CombinedMST_OA,2020.2.10,Win32,60,space,107.180655,,,,,space,1.81226,,,,,,,,,,,,,,,,,,,,,,,,,,,,,,,,,,,,,,,space,12.38741,space,6.99968,2,1,3.39488,0,0,0,0,1,Training/FO_YI_LAY.wav,NEW,,,,,,,,,,,,,,,,,,,,,,,,,,,,,,,,,,,,,,,,,,,,,,,,,,,,
,,,,,,,,,,,,,1,5f33f5c671dbfc2622aecda4,63,2021-03-24_15h17.05.185,CombinedMST_OA,2020.2.10,Win32,60,,,,,,,,,,,,,,,,,,,,,,,,,,,,,,,,,,,,,,,,,,,,,,,,,,,1,1,0.567205,0,1,1,1,1,Training/FO_YI_LAY.wav,OLD,,,,,,,,,,,,,,,,,,,,,,,,,,,,,,,,,,,,,,,,,,,,,,,,,,,,
,,,,,,,,,,,,,2,5f33f5c671dbfc2622aecda4,63,2021-03-24_15h17.05.185,CombinedMST_OA,2020.2.10,Win32,60,,,,,,,,,,,,,,,,,,,,,,,,,,,,,,,,,,,,,,,,,,,,,,,,,,,2,1,0.38635,0,2,2,2,1,Training/YO_BU_JAY.wav,NEW,,,,,,,,,,,,,,,,,,,,,,,,,,,,,,,,,,,,,,,,,,,,,,,,,,,,
,,,,,,,,,,,,,2,5f33f5c671dbfc2622aecda4,63,2021-03-24_15h17.05.185,CombinedMST_OA,2020.2.10,Win32,60,,,,,,,,,,,,,,,,,,,,,,,,,,,,,,,,,,,,,,,,,,,,,,,,,,,2,1,0.688345,0,3,3,3,1,Training/JAY_YO_BU.wav,SIMILAR,,,,,,,,,,,,,,,,,,,,,,,,,,,,,,,,,,,,,,,,,,,,,,,,,,,,
,,,,,,,,,,,,,1,5f33f5c671dbfc2622aecda4,63,2021-03-24_15h17.05.185,CombinedMST_OA,2020.2.10,Win32,60,,,,,,,,,,,,,,,,,,,,,,,,,,,,,,,,,,,,,,,,,,,,,,,,,,,1,1,0.357185,0,4,4,4,1,Training/FO_YI_LAY.wav,OLD,,,,,,,,,,,,,,,,,,,,,,,,,,,,,,,,,,,,,,,,,,,,,,,,,,,,
,,,,,,,,,,,,TestWords/SI_VAI_CHU.wav,,5f33f5c671dbfc2622aecda4,63,2021-03-24_15h17.05.185,CombinedMST_OA,2020.2.10,Win32,60,,,,,,,,,,,,,,,,,,,,,,,,,,,,,,,,,,,,,,,,,,,,,,,,,,,,,,,,,,,,,space,2.48564,2,1,1.0462,0,0,0,0,1,2,NEW,NEW,F,,,,,,,,,,,,,,,,,,,,,,,,,,,,,,,,,,,,,,
,,,,,,,,,,,,TestWords/HO_NAY_VA.wav,,5f33f5c671dbfc2622aecda4,63,2021-03-24_15h17.05.185,CombinedMST_OA,2020.2.10,Win32,60,,,,,,,,,,,,,,,,,,,,,,,,,,,,,,,,,,,,,,,,,,,,,,,,,,,,,,,,,,,,,,,2,1,0.912375,0,1,1,1,1,2,NEW,NEW,F,,,,,,,,,,,,,,,,,,,,,,,,,,,,,,,,,,,,,,
,,,,,,,,,,,,TestWords/KAI_LAY_TA.wav,,5f33f5c671dbfc2622aecda4,63,2021-03-24_15h17.05.185,CombinedMST_OA,2020.2.10,Win32,60,,,,,,,,,,,,,,,,,,,,,,,,,,,,,,,,,,,,,,,,,,,,,,,,,,,,,,,,,,,,,,,2,1,0.878725,0,2,2,2,1,2,NEW,NEW,F,,,,,,,,,,,,,,,,,,,,,,,,,,,,,,,,,,,,,,
,,,,,,,,,,,,TestWords/PAI_LU_WA.wav,,5f33f5c671dbfc2622aecda4,63,2021-03-24_15h17.05.185,CombinedMST_OA,2020.2.10,Win32,60,,,,,,,,,,,,,,,,,,,,,,,,,,,,,,,,,,,,,,,,,,,,,,,,,,,,,,,,,,,,,,,2,1,0.63956,0,3,3,3,1,2,NEW,NEW,F,,,,,,,,,,,,,,,,,,,,,,,,,,,,,,,,,,,,,,
,,,,,,,,,,,,TestWords/WAI_VU_NA.wav,,5f33f5c671dbfc2622aecda4,63,2021-03-24_15h17.05.185,CombinedMST_OA,2020.2.10,Win32,60,,,,,,,,,,,,,,,,,,,,,,,,,,,,,,,,,,,,,,,,,,,,,,,,,,,,,,,,,,,,,,,1,0,0.87372,0,4,4,4,1,2,NEW,NEW,F,,,,,,,,,,,,,,,,,,,,,,,,,,,,,,,,,,,,,,
,,,,,,,,,,,,TestWords/VAI_HO_LA.wav,,5f33f5c671dbfc2622aecda4,63,2021-03-24_15h17.05.185,CombinedMST_OA,2020.2.10,Win32,60,,,,,,,,,,,,,,,,,,,,,,,,,,,,,,,,,,,,,,,,,,,,,,,,,,,,,,,,,,,,,,,2,1,0.658665,0,5,5,5,1,2,NEW,NEW,F,,,,,,,,,,,,,,,,,,,,,,,,,,,,,,,,,,,,,,
,,,,,,,,,,,,TestWords/GU_CHAI_PI.wav,,5f33f5c671dbfc2622aecda4,63,2021-03-24_15h17.05.185,CombinedMST_OA,2020.2.10,Win32,60,,,,,,,,,,,,,,,,,,,,,,,,,,,,,,,,,,,,,,,,,,,,,,,,,,,,,,,,,,,,,,,2,1,0.603285,0,6,6,6,1,2,NEW,NEW,F,,,,,,,,,,,,,,,,,,,,,,,,,,,,,,,,,,,,,,
,,,,,,,,,,,,TestWords/KO_SU_FAI.wav,,5f33f5c671dbfc2622aecda4,63,2021-03-24_15h17.05.185,CombinedMST_OA,2020.2.10,Win32,60,,,,,,,,,,,,,,,,,,,,,,,,,,,,,,,,,,,,,,,,,,,,,,,,,,,,,,,,,,,,,,,2,1,1.15797,0,7,7,7,1,2,NEW,NEW,F,,,,,,,,,,,,,,,,,,,,,,,,,,,,,,,,,,,,,,
,,,,,,,,,,,,TestWords/KAI_LAY_TA.wav,,5f33f5c671dbfc2622aecda4,63,2021-03-24_15h17.05.185,CombinedMST_OA,2020.2.10,Win32,60,,,,,,,,,,,,,,,,,,,,,,,,,,,,,,,,,,,,,,,,,,,,,,,,,,,,,,,,,,,,,,,2,0,0.869,0,8,8,8,1,1,OLD,OLD,F,,,,,,,,,,,,,,,,,,,,,,,,,,,,,,,,,,,,,,
,,,,,,,,,,,,TestWords/BA_KAY_LI.wav,,5f33f5c671dbfc2622aecda4,63,2021-03-24_15h17.05.185,CombinedMST_OA,2020.2.10,Win32,60,,,,,,,,,,,,,,,,,,,,,,,,,,,,,,,,,,,,,,,,,,,,,,,,,,,,,,,,,,,,,,,2,1,0.750285,0,9,9,9,1,2,NEW,NEW,F,,,,,,,,,,,,,,,,,,,,,,,,,,,,,,,,,,,,,,
,,,,,,,,,,,,TestWords/DAI_RU_CHI.wav,,5f33f5c671dbfc2622aecda4,63,2021-03-24_15h17.05.185,CombinedMST_OA,2020.2.10,Win32,60,,,,,,,,,,,,,,,,,,,,,,,,,,,,,,,,,,,,,,,,,,,,,,,,,,,,,,,,,,,,,,,2,1,0.4086,0,10,10,10,1,2,NEW,NEW,F,,,,,,,,,,,,,,,,,,,,,,,,,,,,,,,,,,,,,,
,,,,,,,,,,,,TestWords/WAI_NA_VU.wav,,5f33f5c671dbfc2622aecda4,63,2021-03-24_15h17.05.185,CombinedMST_OA,2020.2.10,Win32,60,,,,,,,,,,,,,,,,,,,,,,,,,,,,,,,,,,,,,,,,,,,,,,,,,,,,,,,,,,,,,,,1,0,0.668675,0,11,11,11,1,2,NEW,SIMILAR,F,,,,,,,,,,,,,,,,,,,,,,,,,,,,,,,,,,,,,,
,,,,,,,,,,,,TestWords/DA_CHU_VAI.wav,,5f33f5c671dbfc2622aecda4,63,2021-03-24_15h17.05.185,CombinedMST_OA,2020.2.10,Win32,60,,,,,,,,,,,,,,,,,,,,,,,,,,,,,,,,,,,,,,,,,,,,,,,,,,,,,,,,,,,,,,,1,0,0.292195,0,12,12,12,1,2,NEW,NEW,F,,,,,,,,,,,,,,,,,,,,,,,,,,,,,,,,,,,,,,
,,,,,,,,,,,,TestWords/KAI_LAY_TA.wav,,5f33f5c671dbfc2622aecda4,63,2021-03-24_15h17.05.185,CombinedMST_OA,2020.2.10,Win32,60,,,,,,,,,,,,,,,,,,,,,,,,,,,,,,,,,,,,,,,,,,,,,,,,,,,,,,,,,,,,,,,2,0,0.891565,0,13,13,13,1,1,OLD,OLD,F,,,,,,,,,,,,,,,,,,,,,,,,,,,,,,,,,,,,,,
,,,,,,,,,,,,TestWords/KO_SU_FAI.wav,,5f33f5c671dbfc2622aecda4,63,2021-03-24_15h17.05.185,CombinedMST_OA,2020.2.10,Win32,60,,,,,,,,,,,,,,,,,,,,,,,,,,,,,,,,,,,,,,,,,,,,,,,,,,,,,,,,,,,,,,,1,1,0.604485,0,14,14,14,1,1,OLD,OLD,F,,,,,,,,,,,,,,,,,,,,,,,,,,,,,,,,,,,,,,
,,,,,,,,,,,,TestWords/VU_NA_WAI.wav,,5f33f5c671dbfc2622aecda4,63,2021-03-24_15h17.05.185,CombinedMST_OA,2020.2.10,Win32,60,,,,,,,,,,,,,,,,,,,,,,,,,,,,,,,,,,,,,,,,,,,,,,,,,,,,,,,,,,,,,,,1,0,0.967395,0,15,15,15,1,2,NEW,SIMILAR,F,,,,,,,,,,,,,,,,,,,,,,,,,,,,,,,,,,,,,,
,,,,,,,,,,,,TestWords/DAI_RU_CHI.wav,,5f33f5c671dbfc2622aecda4,63,2021-03-24_15h17.05.185,CombinedMST_OA,2020.2.10,Win32,60,,,,,,,,,,,,,,,,,,,,,,,,,,,,,,,,,,,,,,,,,,,,,,,,,,,,,,,,,,,,,,,2,0,0.57101,0,16,16,16,1,1,OLD,OLD,F,,,,,,,,,,,,,,,,,,,,,,,,,,,,,,,,,,,,,,
,,,,,,,,,,,,TestWords/KAY_LI_BA.wav,,5f33f5c671dbfc2622aecda4,63,2021-03-24_15h17.05.185,CombinedMST_OA,2020.2.10,Win32,60,,,,,,,,,,,,,,,,,,,,,,,,,,,,,,,,,,,,,,,,,,,,,,,,,,,,,,,,,,,,,,,2,1,1.286375,0,17,17,17,1,2,NEW,SIMILAR,F,,,,,,,,,,,,,,,,,,,,,,,,,,,,,,,,,,,,,,
,,,,,,,,,,,,TestWords/RAY_PA_TI.wav,,5f33f5c671dbfc2622aecda4,63,2021-03-24_15h17.05.185,CombinedMST_OA,2020.2.10,Win32,60,,,,,,,,,,,,,,,,,,,,,,,,,,,,,,,,,,,,,,,,,,,,,,,,,,,,,,,,,,,,,,,2,1,0.651815,0,18,18,18,1,2,NEW,NEW,F,,,,,,,,,,,,,,,,,,,,,,,,,,,,,,,,,,,,,,
,,,,,,,,,,,,TestWords/KAI_LAY_TA.wav,,5f33f5c671dbfc2622aecda4,63,2021-03-24_15h17.05.185,CombinedMST_OA,2020.2.10,Win32,60,,,,,,,,,,,,,,,,,,,,,,,,,,,,,,,,,,,,,,,,,,,,,,,,,,,,,,,,,,,,,,,2,0,0.758985,0,19,19,19,1,1,OLD,OLD,F,,,,,,,,,,,,,,,,,,,,,,,,,,,,,,,,,,,,,,
,,,,,,,,,,,,TestWords/VU_WAI_NA.wav,,5f33f5c671dbfc2622aecda4,63,2021-03-24_15h17.05.185,CombinedMST_OA,2020.2.10,Win32,60,,,,,,,,,,,,,,,,,,,,,,,,,,,,,,,,,,,,,,,,,,,,,,,,,,,,,,,,,,,,,,,1,0,0.413115,0,20,20,20,1,2,NEW,SIMILAR,F,,,,,,,,,,,,,,,,,,,,,,,,,,,,,,,,,,,,,,
,,,,,,,,,,,,TestWords/KO_SU_FAI.wav,,5f33f5c671dbfc2622aecda4,63,2021-03-24_15h17.05.185,CombinedMST_OA,2020.2.10,Win32,60,,,,,,,,,,,,,,,,,,,,,,,,,,,,,,,,,,,,,,,,,,,,,,,,,,,,,,,,,,,,,,,1,1,0.528045,0,21,21,21,1,1,OLD,OLD,F,,,,,,,,,,,,,,,,,,,,,,,,,,,,,,,,,,,,,,
,,,,,,,,,,,,TestWords/HI_NAY_VA.wav,,5f33f5c671dbfc2622aecda4,63,2021-03-24_15h17.05.185,CombinedMST_OA,2020.2.10,Win32,60,,,,,,,,,,,,,,,,,,,,,,,,,,,,,,,,,,,,,,,,,,,,,,,,,,,,,,,,,,,,,,,1,0,0.53534,0,22,22,22,1,2,NEW,NEW,F,,,,,,,,,,,,,,,,,,,,,,,,,,,,,,,,,,,,,,
,,,,,,,,,,,,TestWords/KAI_LAY_TA.wav,,5f33f5c671dbfc2622aecda4,63,2021-03-24_15h17.05.185,CombinedMST_OA,2020.2.10,Win32,60,,,,,,,,,,,,,,,,,,,,,,,,,,,,,,,,,,,,,,,,,,,,,,,,,,,,,,,,,,,,,,,1,1,0.620095,0,23,23,23,1,1,OLD,OLD,F,,,,,,,,,,,,,,,,,,,,,,,,,,,,,,,,,,,,,,
,,,,,,,,,,,,TestWords/RAY_PA_TI.wav,,5f33f5c671dbfc2622aecda4,63,2021-03-24_15h17.05.185,CombinedMST_OA,2020.2.10,Win32,60,,,,,,,,,,,,,,,,,,,,,,,,,,,,,,,,,,,,,,,,,,,,,,,,,,,,,,,,,,,,,,,1,1,0.72645,0,24,24,24,1,1,OLD,OLD,F,,,,,,,,,,,,,,,,,,,,,,,,,,,,,,,,,,,,,,
,,,,,,,,,,,,TestWords/DAI_RU_CHI.wav,,5f33f5c671dbfc2622aecda4,63,2021-03-24_15h17.05.185,CombinedMST_OA,2020.2.10,Win32,60,,,,,,,,,,,,,,,,,,,,,,,,,,,,,,,,,,,,,,,,,,,,,,,,,,,,,,,,,,,,,,,1,1,0.8131,0,25,25,25,1,1,OLD,OLD,F,,,,,,,,,,,,,,,,,,,,,,,,,,,,,,,,,,,,,,
,,,,,,,,,,,,TestWords/NA_VU_WAI.wav,,5f33f5c671dbfc2622aecda4,63,2021-03-24_15h17.05.185,CombinedMST_OA,2020.2.10,Win32,60,,,,,,,,,,,,,,,,,,,,,,,,,,,,,,,,,,,,,,,,,,,,,,,,,,,,,,,,,,,,,,,1,0,0.434415,0,26,26,26,1,2,NEW,SIMILAR,F,,,,,,,,,,,,,,,,,,,,,,,,,,,,,,,,,,,,,,
,,,,,,,,,,,,TestWords/KAY_BA_LI.wav,,5f33f5c671dbfc2622aecda4,63,2021-03-24_15h17.05.185,CombinedMST_OA,2020.2.10,Win32,60,,,,,,,,,,,,,,,,,,,,,,,,,,,,,,,,,,,,,,,,,,,,,,,,,,,,,,,,,,,,,,,2,1,1.08458,0,27,27,27,1,2,NEW,SIMILAR,F,,,,,,,,,,,,,,,,,,,,,,,,,,,,,,,,,,,,,,
,,,,,,,,,,,,TestWords/KO_SU_FAI.wav,,5f33f5c671dbfc2622aecda4,63,2021-03-24_15h17.05.185,CombinedMST_OA,2020.2.10,Win32,60,,,,,,,,,,,,,,,,,,,,,,,,,,,,,,,,,,,,,,,,,,,,,,,,,,,,,,,,,,,,,,,1,1,1.153495,0,28,28,28,1,1,OLD,OLD,F,,,,,,,,,,,,,,,,,,,,,,,,,,,,,,,,,,,,,,
,,,,,,,,,,,,TestWords/KAI_LAY_TA.wav,,5f33f5c671dbfc2622aecda4,63,2021-03-24_15h17.05.185,CombinedMST_OA,2020.2.10,Win32,60,,,,,,,,,,,,,,,,,,,,,,,,,,,,,,,,,,,,,,,,,,,,,,,,,,,,,,,,,,,,,,,1,1,0.650935,0,29,29,29,1,1,OLD,OLD,F,,,,,,,,,,,,,,,,,,,,,,,,,,,,,,,,,,,,,,
,,,,,,,,,,,,TestWords/RAY_PA_TI.wav,,5f33f5c671dbfc2622aecda4,63,2021-03-24_15h17.05.185,CombinedMST_OA,2020.2.10,Win32,60,,,,,,,,,,,,,,,,,,,,,,,,,,,,,,,,,,,,,,,,,,,,,,,,,,,,,,,,,,,,,,,1,1,0.591545,0,30,30,30,1,1,OLD,OLD,F,,,,,,,,,,,,,,,,,,,,,,,,,,,,,,,,,,,,,,
,,,,,,,,,,,,TestWords/NU_CHAY_SO.wav,,5f33f5c671dbfc2622aecda4,63,2021-03-24_15h17.05.185,CombinedMST_OA,2020.2.10,Win32,60,,,,,,,,,,,,,,,,,,,,,,,,,,,,,,,,,,,,,,,,,,,,,,,,,,,,,,,,,,,,,,,2,1,1.04311,0,31,31,31,1,2,NEW,NEW,F,,,,,,,,,,,,,,,,,,,,,,,,,,,,,,,,,,,,,,
,,,,,,,,,,,,TestWords/DAI_RU_CHI.wav,,5f33f5c671dbfc2622aecda4,63,2021-03-24_15h17.05.185,CombinedMST_OA,2020.2.10,Win32,60,,,,,,,,,,,,,,,,,,,,,,,,,,,,,,,,,,,,,,,,,,,,,,,,,,,,,,,,,,,,,,,2,0,0.924915,0,32,32,32,1,1,OLD,OLD,F,,,,,,,,,,,,,,,,,,,,,,,,,,,,,,,,,,,,,,
,,,,,,,,,,,,TestWords/NA_WAI_VU.wav,,5f33f5c671dbfc2622aecda4,63,2021-03-24_15h17.05.185,CombinedMST_OA,2020.2.10,Win32,60,,,,,,,,,,,,,,,,,,,,,,,,,,,,,,,,,,,,,,,,,,,,,,,,,,,,,,,,,,,,,,,2,1,1.67541,0,33,33,33,1,2,NEW,SIMILAR,F,,,,,,,,,,,,,,,,,,,,,,,,,,,,,,,,,,,,,,
,,,,,,,,,,,,TestWords/GA_MU_ZI.wav,,5f33f5c671dbfc2622aecda4,63,2021-03-24_15h17.05.185,CombinedMST_OA,2020.2.10,Win32,60,,,,,,,,,,,,,,,,,,,,,,,,,,,,,,,,,,,,,,,,,,,,,,,,,,,,,,,,,,,,,,,2,1,0.58503,0,34,34,34,1,2,NEW,NEW,F,,,,,,,,,,,,,,,,,,,,,,,,,,,,,,,,,,,,,,
,,,,,,,,,,,,TestWords/KAI_LAY_TA.wav,,5f33f5c671dbfc2622aecda4,63,2021-03-24_15h17.05.185,CombinedMST_OA,2020.2.10,Win32,60,,,,,,,,,,,,,,,,,,,,,,,,,,,,,,,,,,,,,,,,,,,,,,,,,,,,,,,,,,,,,,,1,1,0.400685,0,35,35,35,1,1,OLD,OLD,F,,,,,,,,,,,,,,,,,,,,,,,,,,,,,,,,,,,,,,
,,,,,,,,,,,,TestWords/LI_BA_KAY.wav,,5f33f5c671dbfc2622aecda4,63,2021-03-24_15h17.05.185,CombinedMST_OA,2020.2.10,Win32,60,,,,,,,,,,,,,,,,,,,,,,,,,,,,,,,,,,,,,,,,,,,,,,,,,,,,,,,,,,,,,,,2,1,0.418975,0,36,36,36,1,2,NEW,SIMILAR,F,,,,,,,,,,,,,,,,,,,,,,,,,,,,,,,,,,,,,,
,,,,,,,,,,,,TestWords/KO_SU_FAI.wav,,5f33f5c671dbfc2622aecda4,63,2021-03-24_15h17.05.185,CombinedMST_OA,2020.2.10,Win32,60,,,,,,,,,,,,,,,,,,,,,,,,,,,,,,,,,,,,,,,,,,,,,,,,,,,,,,,,,,,,,,,1,1,0.69273,0,37,37,37,1,1,OLD,OLD,F,,,,,,,,,,,,,,,,,,,,,,,,,,,,,,,,,,,,,,
,,,,,,,,,,,,TestWords/RAY_PA_TI.wav,,5f33f5c671dbfc2622aecda4,63,2021-03-24_15h17.05.185,CombinedMST_OA,2020.2.10,Win32,60,,,,,,,,,,,,,,,,,,,,,,,,,,,,,,,,,,,,,,,,,,,,,,,,,,,,,,,,,,,,,,,1,1,0.188505,0,38,38,38,1,1,OLD,OLD,F,,,,,,,,,,,,,,,,,,,,,,,,,,,,,,,,,,,,,,
,,,,,,,,,,,,TestWords/TAI_SA_GI.wav,,5f33f5c671dbfc2622aecda4,63,2021-03-24_15h17.05.185,CombinedMST_OA,2020.2.10,Win32,60,,,,,,,,,,,,,,,,,,,,,,,,,,,,,,,,,,,,,,,,,,,,,,,,,,,,,,,,,,,,,,,2,1,1.03357,0,39,39,39,1,2,NEW,NEW,F,,,,,,,,,,,,,,,,,,,,,,,,,,,,,,,,,,,,,,
,,,,,,,,,,,,TestWords/DAI_RU_CHI.wav,,5f33f5c671dbfc2622aecda4,63,2021-03-24_15h17.05.185,CombinedMST_OA,2020.2.10,Win32,60,,,,,,,,,,,,,,,,,,,,,,,,,,,,,,,,,,,,,,,,,,,,,,,,,,,,,,,,,,,,,,,1,1,0.734285,0,40,40,40,1,1,OLD,OLD,F,,,,,,,,,,,,,,,,,,,,,,,,,,,,,,,,,,,,,,
,,,,,,,,,,,,TestWords/GA_MU_ZI.wav,,5f33f5c671dbfc2622aecda4,63,2021-03-24_15h17.05.185,CombinedMST_OA,2020.2.10,Win32,60,,,,,,,,,,,,,,,,,,,,,,,,,,,,,,,,,,,,,,,,,,,,,,,,,,,,,,,,,,,,,,,1,1,0.92751,0,41,41,41,1,1,OLD,OLD,F,,,,,,,,,,,,,,,,,,,,,,,,,,,,,,,,,,,,,,
,,,,,,,,,,,,TestWords/KAI_LAY_TA.wav,,5f33f5c671dbfc2622aecda4,63,2021-03-24_15h17.05.185,CombinedMST_OA,2020.2.10,Win32,60,,,,,,,,,,,,,,,,,,,,,,,,,,,,,,,,,,,,,,,,,,,,,,,,,,,,,,,,,,,,,,,1,1,0.646255,0,42,42,42,1,1,OLD,OLD,F,,,,,,,,,,,,,,,,,,,,,,,,,,,,,,,,,,,,,,
,,,,,,,,,,,,TestWords/GI_SA_TAI.wav,,5f33f5c671dbfc2622aecda4,63,2021-03-24_15h17.05.185,CombinedMST_OA,2020.2.10,Win32,60,,,,,,,,,,,,,,,,,,,,,,,,,,,,,,,,,,,,,,,,,,,,,,,,,,,,,,,,,,,,,,,2,1,1.303535,0,43,43,43,1,2,NEW,SIMILAR,F,,,,,,,,,,,,,,,,,,,,,,,,,,,,,,,,,,,,,,
,,,,,,,,,,,,TestWords/BA_LI_KAY.wav,,5f33f5c671dbfc2622aecda4,63,2021-03-24_15h17.05.185,CombinedMST_OA,2020.2.10,Win32,60,,,,,,,,,,,,,,,,,,,,,,,,,,,,,,,,,,,,,,,,,,,,,,,,,,,,,,,,,,,,,,,1,0,1.062785,0,44,44,44,1,2,NEW,SIMILAR,F,,,,,,,,,,,,,,,,,,,,,,,,,,,,,,,,,,,,,,
,,,,,,,,,,,,TestWords/KO_SU_FAI.wav,,5f33f5c671dbfc2622aecda4,63,2021-03-24_15h17.05.185,CombinedMST_OA,2020.2.10,Win32,60,,,,,,,,,,,,,,,,,,,,,,,,,,,,,,,,,,,,,,,,,,,,,,,,,,,,,,,,,,,,,,,1,1,0.55245,0,45,45,45,1,1,OLD,OLD,F,,,,,,,,,,,,,,,,,,,,,,,,,,,,,,,,,,,,,,
,,,,,,,,,,,,TestWords/RAY_PA_TI.wav,,5f33f5c671dbfc2622aecda4,63,2021-03-24_15h17.05.185,CombinedMST_OA,2020.2.10,Win32,60,,,,,,,,,,,,,,,,,,,,,,,,,,,,,,,,,,,,,,,,,,,,,,,,,,,,,,,,,,,,,,,1,1,0.31771,0,46,46,46,1,1,OLD,OLD,F,,,,,,,,,,,,,,,,,,,,,,,,,,,,,,,,,,,,,,
,,,,,,,,,,,,TestWords/GA_MU_ZI.wav,,5f33f5c671dbfc2622aecda4,63,2021-03-24_15h17.05.185,CombinedMST_OA,2020.2.10,Win32,60,,,,,,,,,,,,,,,,,,,,,,,,,,,,,,,,,,,,,,,,,,,,,,,,,,,,,,,,,,,,,,,1,1,0.403465,0,47,47,47,1,1,OLD,OLD,F,,,,,,,,,,,,,,,,,,,,,,,,,,,,,,,,,,,,,,
,,,,,,,,,,,,TestWords/LU_HAI_BO.wav,,5f33f5c671dbfc2622aecda4,63,2021-03-24_15h17.05.185,CombinedMST_OA,2020.2.10,Win32,60,,,,,,,,,,,,,,,,,,,,,,,,,,,,,,,,,,,,,,,,,,,,,,,,,,,,,,,,,,,,,,,2,1,0.71905,0,48,48,48,1,2,NEW,NEW,F,,,,,,,,,,,,,,,,,,,,,,,,,,,,,,,,,,,,,,
,,,,,,,,,,,,TestWords/KAI_LAY_TA.wav,,5f33f5c671dbfc2622aecda4,63,2021-03-24_15h17.05.185,CombinedMST_OA,2020.2.10,Win32,60,,,,,,,,,,,,,,,,,,,,,,,,,,,,,,,,,,,,,,,,,,,,,,,,,,,,,,,,,,,,,,,1,1,0.60139,0,49,49,49,1,1,OLD,OLD,F,,,,,,,,,,,,,,,,,,,,,,,,,,,,,,,,,,,,,,
,,,,,,,,,,,,TestWords/DAI_RU_CHI.wav,,5f33f5c671dbfc2622aecda4,63,2021-03-24_15h17.05.185,CombinedMST_OA,2020.2.10,Win32,60,,,,,,,,,,,,,,,,,,,,,,,,,,,,,,,,,,,,,,,,,,,,,,,,,,,,,,,,,,,,,,,1,1,0.68767,0,50,50,50,1,1,OLD,OLD,F,,,,,,,,,,,,,,,,,,,,,,,,,,,,,,,,,,,,,,
,,,,,,,,,,,,TestWords/GI_TAI_SA.wav,,5f33f5c671dbfc2622aecda4,63,2021-03-24_15h17.05.185,CombinedMST_OA,2020.2.10,Win32,60,,,,,,,,,,,,,,,,,,,,,,,,,,,,,,,,,,,,,,,,,,,,,,,,,,,,,,,,,,,,,,,1,0,0.96895,0,51,51,51,1,2,NEW,SIMILAR,F,,,,,,,,,,,,,,,,,,,,,,,,,,,,,,,,,,,,,,
,,,,,,,,,,,,TestWords/LI_KAY_BA.wav,,5f33f5c671dbfc2622aecda4,63,2021-03-24_15h17.05.185,CombinedMST_OA,2020.2.10,Win32,60,,,,,,,,,,,,,,,,,,,,,,,,,,,,,,,,,,,,,,,,,,,,,,,,,,,,,,,,,,,,,,,2,1,1.32366,0,52,52,52,1,2,NEW,SIMILAR,F,,,,,,,,,,,,,,,,,,,,,,,,,,,,,,,,,,,,,,
,,,,,,,,,,,,TestWords/RAY_PA_TI.wav,,5f33f5c671dbfc2622aecda4,63,2021-03-24_15h17.05.185,CombinedMST_OA,2020.2.10,Win32,60,,,,,,,,,,,,,,,,,,,,,,,,,,,,,,,,,,,,,,,,,,,,,,,,,,,,,,,,,,,,,,,1,1,0.186415,0,53,53,53,1,1,OLD,OLD,F,,,,,,,,,,,,,,,,,,,,,,,,,,,,,,,,,,,,,,
,,,,,,,,,,,,TestWords/KO_SU_FAI.wav,,5f33f5c671dbfc2622aecda4,63,2021-03-24_15h17.05.185,CombinedMST_OA,2020.2.10,Win32,60,,,,,,,,,,,,,,,,,,,,,,,,,,,,,,,,,,,,,,,,,,,,,,,,,,,,,,,,,,,,,,,1,1,0.98442,0,54,54,54,1,1,OLD,OLD,F,,,,,,,,,,,,,,,,,,,,,,,,,,,,,,,,,,,,,,
,,,,,,,,,,,,TestWords/DAY_PU_MO.wav,,5f33f5c671dbfc2622aecda4,63,2021-03-24_15h17.05.185,CombinedMST_OA,2020.2.10,Win32,60,,,,,,,,,,,,,,,,,,,,,,,,,,,,,,,,,,,,,,,,,,,,,,,,,,,,,,,,,,,,,,,2,1,0.545455,0,55,55,55,1,2,NEW,NEW,F,,,,,,,,,,,,,,,,,,,,,,,,,,,,,,,,,,,,,,
,,,,,,,,,,,,TestWords/KAI_LAY_TA.wav,,5f33f5c671dbfc2622aecda4,63,2021-03-24_15h17.05.185,CombinedMST_OA,2020.2.10,Win32,60,,,,,,,,,,,,,,,,,,,,,,,,,,,,,,,,,,,,,,,,,,,,,,,,,,,,,,,,,,,,,,,1,1,0.584015,0,56,56,56,1,1,OLD,OLD,F,,,,,,,,,,,,,,,,,,,,,,,,,,,,,,,,,,,,,,
,,,,,,,,,,,,TestWords/GA_MU_ZI.wav,,5f33f5c671dbfc2622aecda4,63,2021-03-24_15h17.05.185,CombinedMST_OA,2020.2.10,Win32,60,,,,,,,,,,,,,,,,,,,,,,,,,,,,,,,,,,,,,,,,,,,,,,,,,,,,,,,,,,,,,,,1,1,0.44284,0,57,57,57,1,1,OLD,OLD,F,,,,,,,,,,,,,,,,,,,,,,,,,,,,,,,,,,,,,,
,,,,,,,,,,,,TestWords/CHU_LA_PAY.wav,,5f33f5c671dbfc2622aecda4,63,2021-03-24_15h17.05.185,CombinedMST_OA,2020.2.10,Win32,60,,,,,,,,,,,,,,,,,,,,,,,,,,,,,,,,,,,,,,,,,,,,,,,,,,,,,,,,,,,,,,,2,1,1.284315,0,58,58,58,1,2,NEW,NEW,F,,,,,,,,,,,,,,,,,,,,,,,,,,,,,,,,,,,,,,
,,,,,,,,,,,,TestWords/DAI_RU_CHI.wav,,5f33f5c671dbfc2622aecda4,63,2021-03-24_15h17.05.185,CombinedMST_OA,2020.2.10,Win32,60,,,,,,,,,,,,,,,,,,,,,,,,,,,,,,,,,,,,,,,,,,,,,,,,,,,,,,,,,,,,,,,1,1,0.628235,0,59,59,59,1,1,OLD,OLD,F,,,,,,,,,,,,,,,,,,,,,,,,,,,,,,,,,,,,,,
,,,,,,,,,,,,TestWords/SA_TAI_GI.wav,,5f33f5c671dbfc2622aecda4,63,2021-03-24_15h17.05.185,CombinedMST_OA,2020.2.10,Win32,60,,,,,,,,,,,,,,,,,,,,,,,,,,,,,,,,,,,,,,,,,,,,,,,,,,,,,,,,,,,,,,,2,1,1.127005,0,60,60,60,1,2,NEW,SIMILAR,F,,,,,,,,,,,,,,,,,,,,,,,,,,,,,,,,,,,,,,
,,,,,,,,,,,,TestWords/RAY_PA_TI.wav,,5f33f5c671dbfc2622aecda4,63,2021-03-24_15h17.05.185,CombinedMST_OA,2020.2.10,Win32,60,,,,,,,,,,,,,,,,,,,,,,,,,,,,,,,,,,,,,,,,,,,,,,,,,,,,,,,,,,,,,,,1,1,0.11848,0,61,61,61,1,1,OLD,OLD,F,,,,,,,,,,,,,,,,,,,,,,,,,,,,,,,,,,,,,,
,,,,,,,,,,,,TestWords/KAI_LAY_TA.wav,,5f33f5c671dbfc2622aecda4,63,2021-03-24_15h17.05.185,CombinedMST_OA,2020.2.10,Win32,60,,,,,,,,,,,,,,,,,,,,,,,,,,,,,,,,,,,,,,,,,,,,,,,,,,,,,,,,,,,,,,,1,1,0.35125,0,62,62,62,1,1,OLD,OLD,F,,,,,,,,,,,,,,,,,,,,,,,,,,,,,,,,,,,,,,
,,,,,,,,,,,,TestWords/FU_RAI_ZO.wav,,5f33f5c671dbfc2622aecda4,63,2021-03-24_15h17.05.185,CombinedMST_OA,2020.2.10,Win32,60,,,,,,,,,,,,,,,,,,,,,,,,,,,,,,,,,,,,,,,,,,,,,,,,,,,,,,,,,,,,,,,2,1,1.16047,0,63,63,63,1,2,NEW,NEW,F,,,,,,,,,,,,,,,,,,,,,,,,,,,,,,,,,,,,,,
,,,,,,,,,,,,TestWords/KO_SU_FAI.wav,,5f33f5c671dbfc2622aecda4,63,2021-03-24_15h17.05.185,CombinedMST_OA,2020.2.10,Win32,60,,,,,,,,,,,,,,,,,,,,,,,,,,,,,,,,,,,,,,,,,,,,,,,,,,,,,,,,,,,,,,,1,1,0.69348,0,64,64,64,1,1,OLD,OLD,F,,,,,,,,,,,,,,,,,,,,,,,,,,,,,,,,,,,,,,
,,,,,,,,,,,,TestWords/GA_MU_ZI.wav,,5f33f5c671dbfc2622aecda4,63,2021-03-24_15h17.05.185,CombinedMST_OA,2020.2.10,Win32,60,,,,,,,,,,,,,,,,,,,,,,,,,,,,,,,,,,,,,,,,,,,,,,,,,,,,,,,,,,,,,,,1,1,0.541295,0,65,65,65,1,1,OLD,OLD,F,,,,,,,,,,,,,,,,,,,,,,,,,,,,,,,,,,,,,,
,,,,,,,,,,,,TestWords/DAY_MO_PU.wav,,5f33f5c671dbfc2622aecda4,63,2021-03-24_15h17.05.185,CombinedMST_OA,2020.2.10,Win32,60,,,,,,,,,,,,,,,,,,,,,,,,,,,,,,,,,,,,,,,,,,,,,,,,,,,,,,,,,,,,,,,2,1,0.67522,0,66,66,66,1,2,NEW,SIMILAR,F,,,,,,,,,,,,,,,,,,,,,,,,,,,,,,,,,,,,,,
,,,,,,,,,,,,TestWords/DAI_RU_CHI.wav,,5f33f5c671dbfc2622aecda4,63,2021-03-24_15h17.05.185,CombinedMST_OA,2020.2.10,Win32,60,,,,,,,,,,,,,,,,,,,,,,,,,,,,,,,,,,,,,,,,,,,,,,,,,,,,,,,,,,,,,,,1,1,0.75174,0,67,67,67,1,1,OLD,OLD,F,,,,,,,,,,,,,,,,,,,,,,,,,,,,,,,,,,,,,,
,,,,,,,,,,,,TestWords/FI_GU_CHA.wav,,5f33f5c671dbfc2622aecda4,63,2021-03-24_15h17.05.185,CombinedMST_OA,2020.2.10,Win32,60,,,,,,,,,,,,,,,,,,,,,,,,,,,,,,,,,,,,,,,,,,,,,,,,,,,,,,,,,,,,,,,1,0,0.624195,0,68,68,68,1,2,NEW,NEW,F,,,,,,,,,,,,,,,,,,,,,,,,,,,,,,,,,,,,,,
,,,,,,,,,,,,TestWords/GA_MU_ZI.wav,,5f33f5c671dbfc2622aecda4,63,2021-03-24_15h17.05.185,CombinedMST_OA,2020.2.10,Win32,60,,,,,,,,,,,,,,,,,,,,,,,,,,,,,,,,,,,,,,,,,,,,,,,,,,,,,,,,,,,,,,,1,1,0.42524,0,69,69,69,1,1,OLD,OLD,F,,,,,,,,,,,,,,,,,,,,,,,,,,,,,,,,,,,,,,
,,,,,,,,,,,,TestWords/RAY_PA_TI.wav,,5f33f5c671dbfc2622aecda4,63,2021-03-24_15h17.05.185,CombinedMST_OA,2020.2.10,Win32,60,,,,,,,,,,,,,,,,,,,,,,,,,,,,,,,,,,,,,,,,,,,,,,,,,,,,,,,,,,,,,,,1,1,0.135395,0,70,70,70,1,1,OLD,OLD,F,,,,,,,,,,,,,,,,,,,,,,,,,,,,,,,,,,,,,,
,,,,,,,,,,,,TestWords/SA_GI_TAI.wav,,5f33f5c671dbfc2622aecda4,63,2021-03-24_15h17.05.185,CombinedMST_OA,2020.2.10,Win32,60,,,,,,,,,,,,,,,,,,,,,,,,,,,,,,,,,,,,,,,,,,,,,,,,,,,,,,,,,,,,,,,2,1,1.073705,0,71,71,71,1,2,NEW,SIMILAR,F,,,,,,,,,,,,,,,,,,,,,,,,,,,,,,,,,,,,,,
,,,,,,,,,,,,TestWords/MO_DAY_PU.wav,,5f33f5c671dbfc2622aecda4,63,2021-03-24_15h17.05.185,CombinedMST_OA,2020.2.10,Win32,60,,,,,,,,,,,,,,,,,,,,,,,,,,,,,,,,,,,,,,,,,,,,,,,,,,,,,,,,,,,,,,,1,0,1.074025,0,72,72,72,1,2,NEW,SIMILAR,F,,,,,,,,,,,,,,,,,,,,,,,,,,,,,,,,,,,,,,
,,,,,,,,,,,,TestWords/KO_SU_FAI.wav,,5f33f5c671dbfc2622aecda4,63,2021-03-24_15h17.05.185,CombinedMST_OA,2020.2.10,Win32,60,,,,,,,,,,,,,,,,,,,,,,,,,,,,,,,,,,,,,,,,,,,,,,,,,,,,,,,,,,,,,,,1,1,0.57164,0,73,73,73,1,1,OLD,OLD,F,,,,,,,,,,,,,,,,,,,,,,,,,,,,,,,,,,,,,,
,,,,,,,,,,,,TestWords/RAI_ZO_FU.wav,,5f33f5c671dbfc2622aecda4,63,2021-03-24_15h17.05.185,CombinedMST_OA,2020.2.10,Win32,60,,,,,,,,,,,,,,,,,,,,,,,,,,,,,,,,,,,,,,,,,,,,,,,,,,,,,,,,,,,,,,,2,1,1.759335,0,74,74,74,1,2,NEW,SIMILAR,F,,,,,,,,,,,,,,,,,,,,,,,,,,,,,,,,,,,,,,
,,,,,,,,,,,,TestWords/GA_MU_ZI.wav,,5f33f5c671dbfc2622aecda4,63,2021-03-24_15h17.05.185,CombinedMST_OA,2020.2.10,Win32,60,,,,,,,,,,,,,,,,,,,,,,,,,,,,,,,,,,,,,,,,,,,,,,,,,,,,,,,,,,,,,,,1,1,0.253495,0,75,75,75,1,1,OLD,OLD,F,,,,,,,,,,,,,,,,,,,,,,,,,,,,,,,,,,,,,,
,,,,,,,,,,,,TestWords/DAI_RU_CHI.wav,,5f33f5c671dbfc2622aecda4,63,2021-03-24_15h17.05.185,CombinedMST_OA,2020.2.10,Win32,60,,,,,,,,,,,,,,,,,,,,,,,,,,,,,,,,,,,,,,,,,,,,,,,,,,,,,,,,,,,,,,,1,1,0.86257,0,76,76,76,1,1,OLD,OLD,F,,,,,,,,,,,,,,,,,,,,,,,,,,,,,,,,,,,,,,
,,,,,,,,,,,,TestWords/TAI_GI_SA.wav,,5f33f5c671dbfc2622aecda4,63,2021-03-24_15h17.05.185,CombinedMST_OA,2020.2.10,Win32,60,,,,,,,,,,,,,,,,,,,,,,,,,,,,,,,,,,,,,,,,,,,,,,,,,,,,,,,,,,,,,,,1,0,0.6183,0,77,77,77,1,2,NEW,SIMILAR,F,,,,,,,,,,,,,,,,,,,,,,,,,,,,,,,,,,,,,,
,,,,,,,,,,,,TestWords/RAY_PA_TI.wav,,5f33f5c671dbfc2622aecda4,63,2021-03-24_15h17.05.185,CombinedMST_OA,2020.2.10,Win32,60,,,,,,,,,,,,,,,,,,,,,,,,,,,,,,,,,,,,,,,,,,,,,,,,,,,,,,,,,,,,,,,1,1,0.169705,0,78,78,78,1,1,OLD,OLD,F,,,,,,,,,,,,,,,,,,,,,,,,,,,,,,,,,,,,,,
,,,,,,,,,,,,TestWords/PU_DAY_MO.wav,,5f33f5c671dbfc2622aecda4,63,2021-03-24_15h17.05.185,CombinedMST_OA,2020.2.10,Win32,60,,,,,,,,,,,,,,,,,,,,,,,,,,,,,,,,,,,,,,,,,,,,,,,,,,,,,,,,,,,,,,,1,0,0.726065,0,79,79,79,1,2,NEW,SIMILAR,F,,,,,,,,,,,,,,,,,,,,,,,,,,,,,,,,,,,,,,
,,,,,,,,,,,,TestWords/KO_SU_FAI.wav,,5f33f5c671dbfc2622aecda4,63,2021-03-24_15h17.05.185,CombinedMST_OA,2020.2.10,Win32,60,,,,,,,,,,,,,,,,,,,,,,,,,,,,,,,,,,,,,,,,,,,,,,,,,,,,,,,,,,,,,,,1,1,0.38431,0,80,80,80,1,1,OLD,OLD,F,,,,,,,,,,,,,,,,,,,,,,,,,,,,,,,,,,,,,,
,,,,,,,,,,,,TestWords/ZO_RAI_FU.wav,,5f33f5c671dbfc2622aecda4,63,2021-03-24_15h17.05.185,CombinedMST_OA,2020.2.10,Win32,60,,,,,,,,,,,,,,,,,,,,,,,,,,,,,,,,,,,,,,,,,,,,,,,,,,,,,,,,,,,,,,,1,0,0.95229,0,81,81,81,1,2,NEW,SIMILAR,F,,,,,,,,,,,,,,,,,,,,,,,,,,,,,,,,,,,,,,
,,,,,,,,,,,,TestWords/GA_MU_ZI.wav,,5f33f5c671dbfc2622aecda4,63,2021-03-24_15h17.05.185,CombinedMST_OA,2020.2.10,Win32,60,,,,,,,,,,,,,,,,,,,,,,,,,,,,,,,,,,,,,,,,,,,,,,,,,,,,,,,,,,,,,,,1,1,0.252885,0,82,82,82,1,1,OLD,OLD,F,,,,,,,,,,,,,,,,,,,,,,,,,,,,,,,,,,,,,,
,,,,,,,,,,,,TestWords/RAY_PA_TI.wav,,5f33f5c671dbfc2622aecda4,63,2021-03-24_15h17.05.185,CombinedMST_OA,2020.2.10,Win32,60,,,,,,,,,,,,,,,,,,,,,,,,,,,,,,,,,,,,,,,,,,,,,,,,,,,,,,,,,,,,,,,1,1,0.349865,0,83,83,83,1,1,OLD,OLD,F,,,,,,,,,,,,,,,,,,,,,,,,,,,,,,,,,,,,,,
,,,,,,,,,,,,TestWords/DAI_RU_CHI.wav,,5f33f5c671dbfc2622aecda4,63,2021-03-24_15h17.05.185,CombinedMST_OA,2020.2.10,Win32,60,,,,,,,,,,,,,,,,,,,,,,,,,,,,,,,,,,,,,,,,,,,,,,,,,,,,,,,,,,,,,,,1,1,0.28301,0,84,84,84,1,1,OLD,OLD,F,,,,,,,,,,,,,,,,,,,,,,,,,,,,,,,,,,,,,,
,,,,,,,,,,,,TestWords/GA_MU_ZI.wav,,5f33f5c671dbfc2622aecda4,63,2021-03-24_15h17.05.185,CombinedMST_OA,2020.2.10,Win32,60,,,,,,,,,,,,,,,,,,,,,,,,,,,,,,,,,,,,,,,,,,,,,,,,,,,,,,,,,,,,,,,1,1,0.22622,0,85,85,85,1,1,OLD,OLD,F,,,,,,,,,,,,,,,,,,,,,,,,,,,,,,,,,,,,,,
,,,,,,,,,,,,TestWords/NO_WA_BAY.wav,,5f33f5c671dbfc2622aecda4,63,2021-03-24_15h17.05.185,CombinedMST_OA,2020.2.10,Win32,60,,,,,,,,,,,,,,,,,,,,,,,,,,,,,,,,,,,,,,,,,,,,,,,,,,,,,,,,,,,,,,,2,1,1.26867,0,86,86,86,1,2,NEW,NEW,F,,,,,,,,,,,,,,,,,,,,,,,,,,,,,,,,,,,,,,
,,,,,,,,,,,,TestWords/FU_ZO_RAI.wav,,5f33f5c671dbfc2622aecda4,63,2021-03-24_15h17.05.185,CombinedMST_OA,2020.2.10,Win32,60,,,,,,,,,,,,,,,,,,,,,,,,,,,,,,,,,,,,,,,,,,,,,,,,,,,,,,,,,,,,,,,2,1,1.97331,0,87,87,87,1,2,NEW,SIMILAR,F,,,,,,,,,,,,,,,,,,,,,,,,,,,,,,,,,,,,,,
,,,,,,,,,,,,TestWords/KO_SU_FAI.wav,,5f33f5c671dbfc2622aecda4,63,2021-03-24_15h17.05.185,CombinedMST_OA,2020.2.10,Win32,60,,,,,,,,,,,,,,,,,,,,,,,,,,,,,,,,,,,,,,,,,,,,,,,,,,,,,,,,,,,,,,,1,1,0.434695,0,88,88,88,1,1,OLD,OLD,F,,,,,,,,,,,,,,,,,,,,,,,,,,,,,,,,,,,,,,
,,,,,,,,,,,,TestWords/PU_MO_DAY.wav,,5f33f5c671dbfc2622aecda4,63,2021-03-24_15h17.05.185,CombinedMST_OA,2020.2.10,Win32,60,,,,,,,,,,,,,,,,,,,,,,,,,,,,,,,,,,,,,,,,,,,,,,,,,,,,,,,,,,,,,,,1,0,1.539545,0,89,89,89,1,2,NEW,SIMILAR,F,,,,,,,,,,,,,,,,,,,,,,,,,,,,,,,,,,,,,,
,,,,,,,,,,,,TestWords/RAY_PA_TI.wav,,5f33f5c671dbfc2622aecda4,63,2021-03-24_15h17.05.185,CombinedMST_OA,2020.2.10,Win32,60,,,,,,,,,,,,,,,,,,,,,,,,,,,,,,,,,,,,,,,,,,,,,,,,,,,,,,,,,,,,,,,1,1,0.457625,0,90,90,90,1,1,OLD,OLD,F,,,,,,,,,,,,,,,,,,,,,,,,,,,,,,,,,,,,,,
,,,,,,,,,,,,TestWords/DAI_RU_CHI.wav,,5f33f5c671dbfc2622aecda4,63,2021-03-24_15h17.05.185,CombinedMST_OA,2020.2.10,Win32,60,,,,,,,,,,,,,,,,,,,,,,,,,,,,,,,,,,,,,,,,,,,,,,,,,,,,,,,,,,,,,,,1,1,0.578175,0,91,91,91,1,1,OLD,OLD,F,,,,,,,,,,,,,,,,,,,,,,,,,,,,,,,,,,,,,,
,,,,,,,,,,,,TestWords/RAI_FU_ZO.wav,,5f33f5c671dbfc2622aecda4,63,2021-03-24_15h17.05.185,CombinedMST_OA,2020.2.10,Win32,60,,,,,,,,,,,,,,,,,,,,,,,,,,,,,,,,,,,,,,,,,,,,,,,,,,,,,,,,,,,,,,,1,0,1.19943,0,92,92,92,1,2,NEW,SIMILAR,F,,,,,,,,,,,,,,,,,,,,,,,,,,,,,,,,,,,,,,
,,,,,,,,,,,,TestWords/GA_MU_ZI.wav,,5f33f5c671dbfc2622aecda4,63,2021-03-24_15h17.05.185,CombinedMST_OA,2020.2.10,Win32,60,,,,,,,,,,,,,,,,,,,,,,,,,,,,,,,,,,,,,,,,,,,,,,,,,,,,,,,,,,,,,,,1,1,0.20946,0,93,93,93,1,1,OLD,OLD,F,,,,,,,,,,,,,,,,,,,,,,,,,,,,,,,,,,,,,,
,,,,,,,,,,,,TestWords/HA_SI_JAI.wav,,5f33f5c671dbfc2622aecda4,63,2021-03-24_15h17.05.185,CombinedMST_OA,2020.2.10,Win32,60,,,,,,,,,,,,,,,,,,,,,,,,,,,,,,,,,,,,,,,,,,,,,,,,,,,,,,,,,,,,,,,1,0,1.444505,0,94,94,94,1,2,NEW,NEW,F,,,,,,,,,,,,,,,,,,,,,,,,,,,,,,,,,,,,,,
,,,,,,,,,,,,TestWords/MO_PU_DAY.wav,,5f33f5c671dbfc2622aecda4,63,2021-03-24_15h17.05.185,CombinedMST_OA,2020.2.10,Win32,60,,,,,,,,,,,,,,,,,,,,,,,,,,,,,,,,,,,,,,,,,,,,,,,,,,,,,,,,,,,,,,,1,0,0.80658,0,95,95,95,1,2,NEW,SIMILAR,F,,,,,,,,,,,,,,,,,,,,,,,,,,,,,,,,,,,,,,
,,,,,,,,,,,,TestWords/LA_ZAY_CHAI.wav,,5f33f5c671dbfc2622aecda4,63,2021-03-24_15h17.05.185,CombinedMST_OA,2020.2.10,Win32,60,,,,,,,,,,,,,,,,,,,,,,,,,,,,,,,,,,,,,,,,,,,,,,,,,,,,,,,,,,,,,,,2,1,0.90184,0,96,96,96,1,2,NEW,NEW,F,,,,,,,,,,,,,,,,,,,,,,,,,,,,,,,,,,,,,,
,,,,,,,,,,,,TestWords/GA_MU_ZI.wav,,5f33f5c671dbfc2622aecda4,63,2021-03-24_15h17.05.185,CombinedMST_OA,2020.2.10,Win32,60,,,,,,,,,,,,,,,,,,,,,,,,,,,,,,,,,,,,,,,,,,,,,,,,,,,,,,,,,,,,,,,1,1,0.401655,0,97,97,97,1,1,OLD,OLD,F,,,,,,,,,,,,,,,,,,,,,,,,,,,,,,,,,,,,,,
,,,,,,,,,,,,TestWords/ZO_FU_RAI.wav,,5f33f5c671dbfc2622aecda4,63,2021-03-24_15h17.05.185,CombinedMST_OA,2020.2.10,Win32,60,,,,,,,,,,,,,,,,,,,,,,,,,,,,,,,,,,,,,,,,,,,,,,,,,,,,,,,,,,,,,,,1,0,0.491895,0,98,98,98,1,2,NEW,SIMILAR,F,,,,,,,,,,,,,,,,,,,,,,,,,,,,,,,,,,,,,,
,,,,,,,,,,,,TestWords/WAI_RO_JU.wav,,5f33f5c671dbfc2622aecda4,63,2021-03-24_15h17.05.185,CombinedMST_OA,2020.2.10,Win32,60,,,,,,,,,,,,,,,,,,,,,,,,,,,,,,,,,,,,,,,,,,,,,,,,,,,,,,,,,,,,,,,1,0,0.419695,0,99,99,99,1,2,NEW,NEW,F,,,,,,,,,,,,,,,,,,,,,,,,,,,,,,,,,,,,,,
,,,,,,,,,,,,,1,5f33f5c671dbfc2622aecda4,63,2021-03-24_15h17.05.185,CombinedMST_OA,2020.2.10,Win32,60,,,,,,,,,,,,,,,,,,,,,,,,,,,,,,,,,,,,,,,,,,,,,,,,,,,,,,,,,,,SyllableCheck/TI.wav,,,,,,,,,,,,,,,,return,14.611045,blue,space,7.957385,1,1,2.764965,0,0,0,0,1,TI,TEE,DEE,SEE,,,,,,,,,,,,,,,,,,,,,
,,,,,,,,,,,,,3,5f33f5c671dbfc2622aecda4,63,2021-03-24_15h17.05.185,CombinedMST_OA,2020.2.10,Win32,60,,,,,,,,,,,,,,,,,,,,,,,,,,,,,,,,,,,,,,,,,,,,,,,,,,,,,,,,,,,SyllableCheck/FU.wav,,,,,,,,,,,,,,,,,,,,,3,1,2.26579,0,1,1,3,1,FU,VU,FO,FU,,,,,,,,,,,,,,,,,,,,,
,,,,,,,,,,,,,3,5f33f5c671dbfc2622aecda4,63,2021-03-24_15h17.05.185,CombinedMST_OA,2020.2.10,Win32,60,,,,,,,,,,,,,,,,,,,,,,,,,,,,,,,,,,,,,,,,,,,,,,,,,,,,,,,,,,,SyllableCheck/BA.wav,,,,,,,,,,,,,,,,,,,,,3,1,2.007825,0,2,2,4,1,BA,PA,BEE,BA,,,,,,,,,,,,,,,,,,,,,
,,,,,,,,,,,,,2,5f33f5c671dbfc2622aecda4,63,2021-03-24_15h17.05.185,CombinedMST_OA,2020.2.10,Win32,60,,,,,,,,,,,,,,,,,,,,,,,,,,,,,,,,,,,,,,,,,,,,,,,,,,,,,,,,,,,SyllableCheck/SU.wav,,,,,,,,,,,,,,,,,,,,,2,1,2.006685,0,3,3,1,1,SU,SO,SU,ZU,,,,,,,,,,,,,,,,,,,,,
,,,,,,,,,,,,,2,5f33f5c671dbfc2622aecda4,63,2021-03-24_15h17.05.185,CombinedMST_OA,2020.2.10,Win32,60,,,,,,,,,,,,,,,,,,,,,,,,,,,,,,,,,,,,,,,,,,,,,,,,,,,,,,,,,,,SyllableCheck/KAY.wav,,,,,,,,,,,,,,,,,,,,,2,1,1.53149,0,4,4,2,1,KAY,KEE,KAY,HAY,,,,,,,,,,,,,,,,,,,,,
,,,,,,,,,,,,,,5f33f5c671dbfc2622aecda4,63,2021-03-24_15h17.05.185,CombinedMST_OA,2020.2.10,Win32,60,,,,,,,,,,,,,,,,,,,,,,,,,,,,,,,,,,,,,,,,,,,,,,,,,,,,,,,,,,,,,,,,,,,,,,,,,,,,,,,,,,,,,,,,,,,,0,0,0,0,1,,,,,,,,,,,,,,,,
,,,,,,,,,,,,,,5f33f5c671dbfc2622aecda4,63,2021-03-24_15h17.05.185,CombinedMST_OA,2020.2.10,Win32,60,,,,,,,,,,,,,,,,,,,,,,,,,,,,,,,,,,,,,,,,0,1,1,0,1,1,0,,,,,,,,,,,,,,,,,,,,,,,,,,,,,,,,,,,,,,,,,,,,,,,,,,,,,,,,,,,,,,,,,,
,,,,,,,,,,,,,,5f33f5c671dbfc2622aecda4,63,2021-03-24_15h17.05.185,CombinedMST_OA,2020.2.10,Win32,60,,,,,,,,,,,,,,,,,,,,,,,,,,,,,,,,,,,,,,,,,,,,,,,,,,,,,,,,,,,,,,,,,,,,,,,,,,,,,,,,,,,,,,,,,,,,,,,,,space,173.543265,space,17.38555,return,10.06119,church bells,0,0,0,2,1,SoundMST/Chime_A.wav,SIMILAR,,
,,,,,,,,,,,,,,5f33f5c671dbfc2622aecda4,63,2021-03-24_15h17.05.185,CombinedMST_OA,2020.2.10,Win32,60,,,,,,,,,,,,,,,,,,,,,,,,,,,,,,,,,,,,,,,,,,,,,,,,,,,,,,,,,,,,,,,,,,,,,,,,,,,,,,,,,,,,,,,,,,,,,,,,,,,,,return,9.430125, bagpipes,0,1,1,69,1,SoundMST/Bagpipe.wav,SAME,,
,,,,,,,,,,,,,,5f33f5c671dbfc2622aecda4,63,2021-03-24_15h17.05.185,CombinedMST_OA,2020.2.10,Win32,60,,,,,,,,,,,,,,,,,,,,,,,,,,,,,,,,,,,,,,,,,,,,,,,,,,,,,,,,,,,,,,,,,,,,,,,,,,,,,,,,,,,,,,,,,,,,,,,,,,,,,return,9.800685, duck quack,0,2,2,32,1,SoundMST/Duck_C.wav,SIMILAR,,
,,,,,,,,,,,,,,5f33f5c671dbfc2622aecda4,63,2021-03-24_15h17.05.185,CombinedMST_OA,2020.2.10,Win32,60,,,,,,,,,,,,,,,,,,,,,,,,,,,,,,,,,,,,,,,,,,,,,,,,,,,,,,,,,,,,,,,,,,,,,,,,,,,,,,,,,,,,,,,,,,,,,,,,,,,,,return,24.67853, woodworking sound,0,3,3,3,1,SoundMST/Writing_C.wav,SIMILAR,,
,,,,,,,,,,,,,,5f33f5c671dbfc2622aecda4,63,2021-03-24_15h17.05.185,CombinedMST_OA,2020.2.10,Win32,60,,,,,,,,,,,,,,,,,,,,,,,,,,,,,,,,,,,,,,,,,,,,,,,,,,,,,,,,,,,,,,,,,,,,,,,,,,,,,,,,,,,,,,,,,,,,,,,,,,,,,return,13.6814, soda pouring into glass,0,4,4,1,1,SoundMST/Pour_C.wav,SIMILAR,,
,,,,,,,,,,,,,,5f33f5c671dbfc2622aecda4,63,2021-03-24_15h17.05.185,CombinedMST_OA,2020.2.10,Win32,60,,,,,,,,,,,,,,,,,,,,,,,,,,,,,,,,,,,,,,,,,,,,,,,,,,,,,,,,,,,,,,,,,,,,,,,,,,,,,,,,,,,,,,,,,,,,,,,,,,,,,return,12.034045, sleigh bells,0,5,5,50,1,SoundMST/Sleighbells_B.wav,SAME,,
,,,,,,,,,,,,,,5f33f5c671dbfc2622aecda4,63,2021-03-24_15h17.05.185,CombinedMST_OA,2020.2.10,Win32,60,,,,,,,,,,,,,,,,,,,,,,,,,,,,,,,,,,,,,,,,,,,,,,,,,,,,,,,,,,,,,,,,,,,,,,,,,,,,,,,,,,,,,,,,,,,,,,,,,,,,,return,18.346355, chips crunching in mouth,0,6,6,36,1,SoundMST/Chomp_A.wav,SIMILAR,,
,,,,,,,,,,,,,,5f33f5c671dbfc2622aecda4,63,2021-03-24_15h17.05.185,CombinedMST_OA,2020.2.10,Win32,60,,,,,,,,,,,,,,,,,,,,,,,,,,,,,,,,,,,,,,,,,,,,,,,,,,,,,,,,,,,,,,,,,,,,,,,,,,,,,,,,,,,,,,,,,,,,,,,,,,,,,return,10.500815, small plane passing overhead,0,7,7,62,1,SoundMST/Airplane_B.wav,SAME,,
,,,,,,,,,,,,,,5f33f5c671dbfc2622aecda4,63,2021-03-24_15h17.05.185,CombinedMST_OA,2020.2.10,Win32,60,,,,,,,,,,,,,,,,,,,,,,,,,,,,,,,,,,,,,,,,,,,,,,,,,,,,,,,,,,,,,,,,,,,,,,,,,,,,,,,,,,,,,,,,,,,,,,,,,,,,,return,6.917725, explosion,0,8,8,48,1,SoundMST/Thunder_A.wav,SAME,,
,,,,,,,,,,,,,,5f33f5c671dbfc2622aecda4,63,2021-03-24_15h17.05.185,CombinedMST_OA,2020.2.10,Win32,60,,,,,,,,,,,,,,,,,,,,,,,,,,,,,,,,,,,,,,,,,,,,,,,,,,,,,,,,,,,,,,,,,,,,,,,,,,,,,,,,,,,,,,,,,,,,,,,,,,,,,return,7.18929, guitar chord,0,9,9,59,1,SoundMST/Guitar_B.wav,SAME,,
,,,,,,,,,,,,,,5f33f5c671dbfc2622aecda4,63,2021-03-24_15h17.05.185,CombinedMST_OA,2020.2.10,Win32,60,,,,,,,,,,,,,,,,,,,,,,,,,,,,,,,,,,,,,,,,,,,,,,,,,,,,,,,,,,,,,,,,,,,,,,,,,,,,,,,,,,,,,,,,,,,,,,,,,,,,,return,10.731495, telephone dial tone,0,10,10,54,1,SoundMST/DialTone.wav,SAME,,
,,,,,,,,,,,,,,5f33f5c671dbfc2622aecda4,63,2021-03-24_15h17.05.185,CombinedMST_OA,2020.2.10,Win32,60,,,,,,,,,,,,,,,,,,,,,,,,,,,,,,,,,,,,,,,,,,,,,,,,,,,,,,,,,,,,,,,,,,,,,,,,,,,,,,,,,,,,,,,,,,,,,,,,,,,,,return,11.180315, soda into glass,0,11,11,25,1,SoundMST/Pour_B.wav,SIMILAR,,
,,,,,,,,,,,,,,5f33f5c671dbfc2622aecda4,63,2021-03-24_15h17.05.185,CombinedMST_OA,2020.2.10,Win32,60,,,,,,,,,,,,,,,,,,,,,,,,,,,,,,,,,,,,,,,,,,,,,,,,,,,,,,,,,,,,,,,,,,,,,,,,,,,,,,,,,,,,,,,,,,,,,,,,,,,,,return,8.07023, horse neighing,0,12,12,82,1,SoundMST/Horse.wav,SAME,,
,,,,,,,,,,,,,,5f33f5c671dbfc2622aecda4,63,2021-03-24_15h17.05.185,CombinedMST_OA,2020.2.10,Win32,60,,,,,,,,,,,,,,,,,,,,,,,,,,,,,,,,,,,,,,,,,,,,,,,,,,,,,,,,,,,,,,,,,,,,,,,,,,,,,,,,,,,,,,,,,,,,,,,,,,,,,return,14.521055, lion roaring gently,0,13,13,43,1,SoundMST/Growl_G.wav,SIMILAR,,
,,,,,,,,,,,,,,5f33f5c671dbfc2622aecda4,63,2021-03-24_15h17.05.185,CombinedMST_OA,2020.2.10,Win32,60,,,,,,,,,,,,,,,,,,,,,,,,,,,,,,,,,,,,,,,,,,,,,,,,,,,,,,,,,,,,,,,,,,,,,,,,,,,,,,,,,,,,,,,,,,,,,,,,,,,,,return,11.369535, noisy chewing,0,14,14,12,1,SoundMST/Chomp_C.wav,SIMILAR,,
,,,,,,,,,,,,,,5f33f5c671dbfc2622aecda4,63,2021-03-24_15h17.05.185,CombinedMST_OA,2020.2.10,Win32,60,,,,,,,,,,,,,,,,,,,,,,,,,,,,,,,,,,,,,,,,,,,,,,,,,,,,,,,,,,,,,,,,,,,,,,,,,,,,,,,,,,,,,,,,,,,,,,,,,,,,,return,7.59907, donkey braying,0,15,15,87,1,SoundMST/Donkey.wav,SAME,,
,,,,,,,,,,,,,,5f33f5c671dbfc2622aecda4,63,2021-03-24_15h17.05.185,CombinedMST_OA,2020.2.10,Win32,60,,,,,,,,,,,,,,,,,,,,,,,,,,,,,,,,,,,,,,,,,,,,,,,,,,,,,,,,,,,,,,,,,,,,,,,,,,,,,,,,,,,,,,,,,,,,,,,,,,,,,return,6.613535, french horn,0,16,16,63,1,SoundMST/Trumpet_B.wav,SAME,,
,,,,,,,,,,,,,,5f33f5c671dbfc2622aecda4,63,2021-03-24_15h17.05.185,CombinedMST_OA,2020.2.10,Win32,60,,,,,,,,,,,,,,,,,,,,,,,,,,,,,,,,,,,,,,,,,,,,,,,,,,,,,,,,,,,,,,,,,,,,,,,,,,,,,,,,,,,,,,,,,,,,,,,,,,,,,return,10.831145, typewriter clacking,0,17,17,49,1,SoundMST/Typing.wav,SAME,,
,,,,,,,,,,,,,,5f33f5c671dbfc2622aecda4,63,2021-03-24_15h17.05.185,CombinedMST_OA,2020.2.10,Win32,60,,,,,,,,,,,,,,,,,,,,,,,,,,,,,,,,,,,,,,,,,,,,,,,,,,,,,,,,,,,,,,,,,,,,,,,,,,,,,,,,,,,,,,,,,,,,,,,,,,,,,return,9.263715, elephant trumpeting,0,18,18,24,1,SoundMST/Elephant_C.wav,SIMILAR,,
,,,,,,,,,,,,,,5f33f5c671dbfc2622aecda4,63,2021-03-24_15h17.05.185,CombinedMST_OA,2020.2.10,Win32,60,,,,,,,,,,,,,,,,,,,,,,,,,,,,,,,,,,,,,,,,,,,,,,,,,,,,,,,,,,,,,,,,,,,,,,,,,,,,,,,,,,,,,,,,,,,,,,,,,,,,,return,6.101395, applause,0,19,19,23,1,SoundMST/Clap_C.wav,SIMILAR,,
,,,,,,,,,,,,,,5f33f5c671dbfc2622aecda4,63,2021-03-24_15h17.05.185,CombinedMST_OA,2020.2.10,Win32,60,,,,,,,,,,,,,,,,,,,,,,,,,,,,,,,,,,,,,,,,,,,,,,,,,,,,,,,,,,,,,,,,,,,,,,,,,,,,,,,,,,,,,,,,,,,,,,,,,,,,,return,20.4378, train whistle in tunnel,0,20,20,86,1,SoundMST/Steam.wav,SAME,,
,,,,,,,,,,,,,,5f33f5c671dbfc2622aecda4,63,2021-03-24_15h17.05.185,CombinedMST_OA,2020.2.10,Win32,60,,,,,,,,,,,,,,,,,,,,,,,,,,,,,,,,,,,,,,,,,,,,,,,,,,,,,,,,,,,,,,,,,,,,,,,,,,,,,,,,,,,,,,,,,,,,,,,,,,,,,return,7.21784, crow cawing,0,21,21,39,1,SoundMST/Crow_B.wav,SIMILAR,,
,,,,,,,,,,,,,,5f33f5c671dbfc2622aecda4,63,2021-03-24_15h17.05.185,CombinedMST_OA,2020.2.10,Win32,60,,,,,,,,,,,,,,,,,,,,,,,,,,,,,,,,,,,,,,,,,,,,,,,,,,,,,,,,,,,,,,,,,,,,,,,,,,,,,,,,,,,,,,,,,,,,,,,,,,,,,return,14.221445, duck loudly quacking,0,22,22,8,1,SoundMST/Duck_D.wav,SIMILAR,,
,,,,,,,,,,,,,,5f33f5c671dbfc2622aecda4,63,2021-03-24_15h17.05.185,CombinedMST_OA,2020.2.10,Win32,60,,,,,,,,,,,,,,,,,,,,,,,,,,,,,,,,,,,,,,,,,,,,,,,,,,,,,,,,,,,,,,,,,,,,,,,,,,,,,,,,,,,,,,,,,,,,,,,,,,,,,return,9.17889, 5 piano notes,0,23,23,77,1,SoundMST/Piano_D.wav,SAME,,
,,,,,,,,,,,,,,5f33f5c671dbfc2622aecda4,63,2021-03-24_15h17.05.185,CombinedMST_OA,2020.2.10,Win32,60,,,,,,,,,,,,,,,,,,,,,,,,,,,,,,,,,,,,,,,,,,,,,,,,,,,,,,,,,,,,,,,,,,,,,,,,,,,,,,,,,,,,,,,,,,,,,,,,,,,,,return,8.223145, water from tap,0,24,24,29,1,SoundMST/Faucet_A.wav,SIMILAR,,
,,,,,,,,,,,,,,5f33f5c671dbfc2622aecda4,63,2021-03-24_15h17.05.185,CombinedMST_OA,2020.2.10,Win32,60,,,,,,,,,,,,,,,,,,,,,,,,,,,,,,,,,,,,,,,,,,,,,,,,,,,,,,,,,,,,,,,,,,,,,,,,,,,,,,,,,,,,,,,,,,,,,,,,,,,,,return,7.76375, 3 cello notes,0,25,25,61,1,SoundMST/Cello.wav,SAME,,
,,,,,,,,,,,,,,5f33f5c671dbfc2622aecda4,63,2021-03-24_15h17.05.185,CombinedMST_OA,2020.2.10,Win32,60,,,,,,,,,,,,,,,,,,,,,,,,,,,,,,,,,,,,,,,,,,,,,,,,,,,,,,,,,,,,,,,,,,,,,,,,,,,,,,,,,,,,,,,,,,,,,,,,,,,,,return,8.9964, siren at a distance,0,26,26,38,1,SoundMST/Siren_E.wav,SIMILAR,,
,,,,,,,,,,,,,,5f33f5c671dbfc2622aecda4,63,2021-03-24_15h17.05.185,CombinedMST_OA,2020.2.10,Win32,60,,,,,,,,,,,,,,,,,,,,,,,,,,,,,,,,,,,,,,,,,,,,,,,,,,,,,,,,,,,,,,,,,,,,,,,,,,,,,,,,,,,,,,,,,,,,,,,,,,,,,return,11.701175, birds screeching,0,27,27,78,1,SoundMST/Fireworks.wav,SAME,,
,,,,,,,,,,,,,,5f33f5c671dbfc2622aecda4,63,2021-03-24_15h17.05.185,CombinedMST_OA,2020.2.10,Win32,60,,,,,,,,,,,,,,,,,,,,,,,,,,,,,,,,,,,,,,,,,,,,,,,,,,,,,,,,,,,,,,,,,,,,,,,,,,,,,,,,,,,,,,,,,,,,,,,,,,,,,return,20.73452, sheep making sheep sound,0,28,28,44,1,SoundMST/Goat_B.wav,SIMILAR,,
,,,,,,,,,,,,,,5f33f5c671dbfc2622aecda4,63,2021-03-24_15h17.05.185,CombinedMST_OA,2020.2.10,Win32,60,,,,,,,,,,,,,,,,,,,,,,,,,,,,,,,,,,,,,,,,,,,,,,,,,,,,,,,,,,,,,,,,,,,,,,,,,,,,,,,,,,,,,,,,,,,,,,,,,,,,,return,16.47097, ice cubes dropping into glass,0,29,29,57,1,SoundMST/IceDrop.wav,SAME,,
,,,,,,,,,,,,,,5f33f5c671dbfc2622aecda4,63,2021-03-24_15h17.05.185,CombinedMST_OA,2020.2.10,Win32,60,,,,,,,,,,,,,,,,,,,,,,,,,,,,,,,,,,,,,,,,,,,,,,,,,,,,,,,,,,,,,,,,,,,,,,,,,,,,,,,,,,,,,,,,,,,,,,,,,,,,,return,19.52039, glass being placed on hard surface,0,30,30,68,1,SoundMST/Cup.wav,SAME,,
,,,,,,,,,,,,,,5f33f5c671dbfc2622aecda4,63,2021-03-24_15h17.05.185,CombinedMST_OA,2020.2.10,Win32,60,,,,,,,,,,,,,,,,,,,,,,,,,,,,,,,,,,,,,,,,,,,,,,,,,,,,,,,,,,,,,,,,,,,,,,,,,,,,,,,,,,,,,,,,,,,,,,,,,,,,,return,21.146875, small vacuum running for 2 seconds,0,31,31,74,1,SoundMST/HairDryer_A.wav,SAME,,
,,,,,,,,,,,,,,5f33f5c671dbfc2622aecda4,63,2021-03-24_15h17.05.185,CombinedMST_OA,2020.2.10,Win32,60,,,,,,,,,,,,,,,,,,,,,,,,,,,,,,,,,,,,,,,,,,,,,,,,,,,,,,,,,,,,,,,,,,,,,,,,,,,,,,,,,,,,,,,,,,,,,,,,,,,,,return,19.834885, wind whistling around a structure,0,32,32,55,1,SoundMST/Wind_B.wav,SAME,,
,,,,,,,,,,,,,,5f33f5c671dbfc2622aecda4,63,2021-03-24_15h17.05.185,CombinedMST_OA,2020.2.10,Win32,60,,,,,,,,,,,,,,,,,,,,,,,,,,,,,,,,,,,,,,,,,,,,,,,,,,,,,,,,,,,,,,,,,,,,,,,,,,,,,,,,,,,,,,,,,,,,,,,,,,,,,return,13.254675, 4 notes being whistled,0,33,33,67,1,SoundMST/ManWhistle.wav,SAME,,
,,,,,,,,,,,,,,5f33f5c671dbfc2622aecda4,63,2021-03-24_15h17.05.185,CombinedMST_OA,2020.2.10,Win32,60,,,,,,,,,,,,,,,,,,,,,,,,,,,,,,,,,,,,,,,,,,,,,,,,,,,,,,,,,,,,,,,,,,,,,,,,,,,,,,,,,,,,,,,,,,,,,,,,,,,,,return,13.629875, frog croaking,0,34,34,73,1,SoundMST/Bullfrog.wav,SAME,,
,,,,,,,,,,,,,,5f33f5c671dbfc2622aecda4,63,2021-03-24_15h17.05.185,CombinedMST_OA,2020.2.10,Win32,60,,,,,,,,,,,,,,,,,,,,,,,,,,,,,,,,,,,,,,,,,,,,,,,,,,,,,,,,,,,,,,,,,,,,,,,,,,,,,,,,,,,,,,,,,,,,,,,,,,,,,return,19.494935, printer spitting out paper,0,35,35,83,1,SoundMST/Printer.wav,SAME,,
,,,,,,,,,,,,,,5f33f5c671dbfc2622aecda4,63,2021-03-24_15h17.05.185,CombinedMST_OA,2020.2.10,Win32,60,,,,,,,,,,,,,,,,,,,,,,,,,,,,,,,,,,,,,,,,,,,,,,,,,,,,,,,,,,,,,,,,,,,,,,,,,,,,,,,,,,,,,,,,,,,,,,,,,,,,,return,10.96309, cell phone vibrating,0,36,36,52,1,SoundMST/Buzz.wav,SAME,,
,,,,,,,,,,,,,,5f33f5c671dbfc2622aecda4,63,2021-03-24_15h17.05.185,CombinedMST_OA,2020.2.10,Win32,60,,,,,,,,,,,,,,,,,,,,,,,,,,,,,,,,,,,,,,,,,,,,,,,,,,,,,,,,,,,,,,,,,,,,,,,,,,,,,,,,,,,,,,,,,,,,,,,,,,,,,return,14.62172, bubbles in a liquid,0,37,37,45,1,SoundMST/Bubbles_A.wav,SIMILAR,,
,,,,,,,,,,,,,,5f33f5c671dbfc2622aecda4,63,2021-03-24_15h17.05.185,CombinedMST_OA,2020.2.10,Win32,60,,,,,,,,,,,,,,,,,,,,,,,,,,,,,,,,,,,,,,,,,,,,,,,,,,,,,,,,,,,,,,,,,,,,,,,,,,,,,,,,,,,,,,,,,,,,,,,,,,,,,return,14.538, nasal snoring sound,0,38,38,34,1,SoundMST/Snore_D.wav,SIMILAR,,
,,,,,,,,,,,,,,5f33f5c671dbfc2622aecda4,63,2021-03-24_15h17.05.185,CombinedMST_OA,2020.2.10,Win32,60,,,,,,,,,,,,,,,,,,,,,,,,,,,,,,,,,,,,,,,,,,,,,,,,,,,,,,,,,,,,,,,,,,,,,,,,,,,,,,,,,,,,,,,,,,,,,,,,,,,,,return,7.93057, sheep baaing,0,39,39,20,1,SoundMST/Goat_C.wav,SIMILAR,,
,,,,,,,,,,,,,,5f33f5c671dbfc2622aecda4,63,2021-03-24_15h17.05.185,CombinedMST_OA,2020.2.10,Win32,60,,,,,,,,,,,,,,,,,,,,,,,,,,,,,,,,,,,,,,,,,,,,,,,,,,,,,,,,,,,,,,,,,,,,,,,,,,,,,,,,,,,,,,,,,,,,,,,,,,,,,return,16.53775, telephone ringing,0,40,40,13,1,SoundMST/Phone_E.wav,SIMILAR,,
,,,,,,,,,,,,,,5f33f5c671dbfc2622aecda4,63,2021-03-24_15h17.05.185,CombinedMST_OA,2020.2.10,Win32,60,,,,,,,,,,,,,,,,,,,,,,,,,,,,,,,,,,,,,,,,,,,,,,,,,,,,,,,,,,,,,,,,,,,,,,,,,,,,,,,,,,,,,,,,,,,,,,,,,,,,,return,14.352675, heavy footsteps on wooden floor,0,41,41,40,1,SoundMST/Footsteps_C.wav,SIMILAR,,
,,,,,,,,,,,,,,5f33f5c671dbfc2622aecda4,63,2021-03-24_15h17.05.185,CombinedMST_OA,2020.2.10,Win32,60,,,,,,,,,,,,,,,,,,,,,,,,,,,,,,,,,,,,,,,,,,,,,,,,,,,,,,,,,,,,,,,,,,,,,,,,,,,,,,,,,,,,,,,,,,,,,,,,,,,,,return,11.11301, pins being knocked down,0,42,42,72,1,SoundMST/Bowlingpins.wav,SAME,,
,,,,,,,,,,,,,,5f33f5c671dbfc2622aecda4,63,2021-03-24_15h17.05.185,CombinedMST_OA,2020.2.10,Win32,60,,,,,,,,,,,,,,,,,,,,,,,,,,,,,,,,,,,,,,,,,,,,,,,,,,,,,,,,,,,,,,,,,,,,,,,,,,,,,,,,,,,,,,,,,,,,,,,,,,,,,return,11.832835, coins being slid off a table,0,43,43,42,1,SoundMST/Coin_D.wav,SIMILAR,,
,,,,,,,,,,,,,,5f33f5c671dbfc2622aecda4,63,2021-03-24_15h17.05.185,CombinedMST_OA,2020.2.10,Win32,60,,,,,,,,,,,,,,,,,,,,,,,,,,,,,,,,,,,,,,,,,,,,,,,,,,,,,,,,,,,,,,,,,,,,,,,,,,,,,,,,,,,,,,,,,,,,,,,,,,,,,return,17.14816, cuckoo clock chiming ,0,44,44,75,1,SoundMST/Cuckoo_A.wav,SAME,,
,,,,,,,,,,,,,,5f33f5c671dbfc2622aecda4,63,2021-03-24_15h17.05.185,CombinedMST_OA,2020.2.10,Win32,60,,,,,,,,,,,,,,,,,,,,,,,,,,,,,,,,,,,,,,,,,,,,,,,,,,,,,,,,,,,,,,,,,,,,,,,,,,,,,,,,,,,,,,,,,,,,,,,,,,,,,return,16.61909, whistle being blown in a mouth,0,45,45,11,1,SoundMST/Whistle_C.wav,SIMILAR,,
,,,,,,,,,,,,,,5f33f5c671dbfc2622aecda4,63,2021-03-24_15h17.05.185,CombinedMST_OA,2020.2.10,Win32,60,,,,,,,,,,,,,,,,,,,,,,,,,,,,,,,,,,,,,,,,,,,,,,,,,,,,,,,,,,,,,,,,,,,,,,,,,,,,,,,,,,,,,,,,,,,,,,,,,,,,,return,8.47203, cow mooing,0,46,46,71,1,SoundMST/Cow.wav,SAME,,
,,,,,,,,,,,,,,5f33f5c671dbfc2622aecda4,63,2021-03-24_15h17.05.185,CombinedMST_OA,2020.2.10,Win32,60,,,,,,,,,,,,,,,,,,,,,,,,,,,,,,,,,,,,,,,,,,,,,,,,,,,,,,,,,,,,,,,,,,,,,,,,,,,,,,,,,,,,,,,,,,,,,,,,,,,,,return,11.85624, woodworking rubbing sound,0,47,47,27,1,SoundMST/Writing_A.wav,SIMILAR,,
,,,,,,,,,,,,,,5f33f5c671dbfc2622aecda4,63,2021-03-24_15h17.05.185,CombinedMST_OA,2020.2.10,Win32,60,,,,,,,,,,,,,,,,,,,,,,,,,,,,,,,,,,,,,,,,,,,,,,,,,,,,,,,,,,,,,,,,,,,,,,,,,,,,,,,,,,,,,,,,,,,,,,,,,,,,,return,13.580955, baby making happy sound,0,48,48,4,1,SoundMST/Baby_E.wav,SIMILAR,,
,,,,,,,,,,,,,,5f33f5c671dbfc2622aecda4,63,2021-03-24_15h17.05.185,CombinedMST_OA,2020.2.10,Win32,60,,,,,,,,,,,,,,,,,,,,,,,,,,,,,,,,,,,,,,,,,,,,,,,,,,,,,,,,,,,,,,,,,,,,,,,,,,,,,,,,,,,,,,,,,,,,,,,,,,,,,return,16.122585, paper being scrunched,0,49,49,81,1,SoundMST/PaperRip.wav,SAME,,
,,,,,,,,,,,,,,5f33f5c671dbfc2622aecda4,63,2021-03-24_15h17.05.185,CombinedMST_OA,2020.2.10,Win32,60,,,,,,,,,,,,,,,,,,,,,,,,,,,,,,,,,,,,,,,,,,,,,,,,,,,,,,,,,,,,,,,,,,,,,,,,,,,,,,,,,,,,,,,,,,,,,,,,,,,,,return,9.570905, siren sound outside,0,50,50,14,1,SoundMST/Siren_A.wav,SIMILAR,,
,,,,,,,,,,,,,,5f33f5c671dbfc2622aecda4,63,2021-03-24_15h17.05.185,CombinedMST_OA,2020.2.10,Win32,60,,,,,,,,,,,,,,,,,,,,,,,,,,,,,,,,,,,,,,,,,,,,,,,,,,,,,,,,,,,,,,,,,,,,,,,,,,,,,,,,,,,,,,,,,,,,,,,,,,,,,return,6.489465, man coughing,0,51,51,30,1,SoundMST/Cough_D.wav,SIMILAR,,
,,,,,,,,,,,,,,5f33f5c671dbfc2622aecda4,63,2021-03-24_15h17.05.185,CombinedMST_OA,2020.2.10,Win32,60,,,,,,,,,,,,,,,,,,,,,,,,,,,,,,,,,,,,,,,,,,,,,,,,,,,,,,,,,,,,,,,,,,,,,,,,,,,,,,,,,,,,,,,,,,,,,,,,,,,,,return,15.763185, water running in sink for a few seconds,0,52,52,5,1,SoundMST/Faucet_C.wav,SIMILAR,,
,,,,,,,,,,,,,,5f33f5c671dbfc2622aecda4,63,2021-03-24_15h17.05.185,CombinedMST_OA,2020.2.10,Win32,60,,,,,,,,,,,,,,,,,,,,,,,,,,,,,,,,,,,,,,,,,,,,,,,,,,,,,,,,,,,,,,,,,,,,,,,,,,,,,,,,,,,,,,,,,,,,,,,,,,,,,return,18.521005, drink being drank,0,53,53,66,1,SoundMST/Slurp.wav,SAME,,
,,,,,,,,,,,,,,5f33f5c671dbfc2622aecda4,63,2021-03-24_15h17.05.185,CombinedMST_OA,2020.2.10,Win32,60,,,,,,,,,,,,,,,,,,,,,,,,,,,,,,,,,,,,,,,,,,,,,,,,,,,,,,,,,,,,,,,,,,,,,,,,,,,,,,,,,,,,,,,,,,,,,,,,,,,,,return,21.633615, bubbling sound in a liquid,0,54,54,21,1,SoundMST/Bubbles_B.wav,SIMILAR,,
,,,,,,,,,,,,,,5f33f5c671dbfc2622aecda4,63,2021-03-24_15h17.05.185,CombinedMST_OA,2020.2.10,Win32,60,,,,,,,,,,,,,,,,,,,,,,,,,,,,,,,,,,,,,,,,,,,,,,,,,,,,,,,,,,,,,,,,,,,,,,,,,,,,,,,,,,,,,,,,,,,,,,,,,,,,,return,11.01439, wolf howling,0,55,55,80,1,SoundMST/Howl.wav,SAME,,
,,,,,,,,,,,,,,5f33f5c671dbfc2622aecda4,63,2021-03-24_15h17.05.185,CombinedMST_OA,2020.2.10,Win32,60,,,,,,,,,,,,,,,,,,,,,,,,,,,,,,,,,,,,,,,,,,,,,,,,,,,,,,,,,,,,,,,,,,,,,,,,,,,,,,,,,,,,,,,,,,,,,,,,,,,,,return,9.347065, dog barking 3 times,0,56,56,17,1,SoundMST/Dog_F.wav,SIMILAR,,
,,,,,,,,,,,,,,5f33f5c671dbfc2622aecda4,63,2021-03-24_15h17.05.185,CombinedMST_OA,2020.2.10,Win32,60,,,,,,,,,,,,,,,,,,,,,,,,,,,,,,,,,,,,,,,,,,,,,,,,,,,,,,,,,,,,,,,,,,,,,,,,,,,,,,,,,,,,,,,,,,,,,,,,,,,,,return,15.13752, elephant screaming,0,57,57,0,1,SoundMST/Elephant_A.wav,SIMILAR,,
,,,,,,,,,,,,,,5f33f5c671dbfc2622aecda4,63,2021-03-24_15h17.05.185,CombinedMST_OA,2020.2.10,Win32,60,,,,,,,,,,,,,,,,,,,,,,,,,,,,,,,,,,,,,,,,,,,,,,,,,,,,,,,,,,,,,,,,,,,,,,,,,,,,,,,,,,,,,,,,,,,,,,,,,,,,,return,10.817265, people laughing at a joke,0,58,58,9,1,SoundMST/Laugh_D.wav,SIMILAR,,
,,,,,,,,,,,,,,5f33f5c671dbfc2622aecda4,63,2021-03-24_15h17.05.185,CombinedMST_OA,2020.2.10,Win32,60,,,,,,,,,,,,,,,,,,,,,,,,,,,,,,,,,,,,,,,,,,,,,,,,,,,,,,,,,,,,,,,,,,,,,,,,,,,,,,,,,,,,,,,,,,,,,,,,,,,,,return,6.964745, kitten mewing,0,59,59,65,1,SoundMST/Cat_A.wav,SAME,,
,,,,,,,,,,,,,,5f33f5c671dbfc2622aecda4,63,2021-03-24_15h17.05.185,CombinedMST_OA,2020.2.10,Win32,60,,,,,,,,,,,,,,,,,,,,,,,,,,,,,,,,,,,,,,,,,,,,,,,,,,,,,,,,,,,,,,,,,,,,,,,,,,,,,,,,,,,,,,,,,,,,,,,,,,,,,return,9.16381, dog barking 3 times,0,60,60,41,1,SoundMST/Dog_H.wav,SIMILAR,,
,,,,,,,,,,,,,,5f33f5c671dbfc2622aecda4,63,2021-03-24_15h17.05.185,CombinedMST_OA,2020.2.10,Win32,60,,,,,,,,,,,,,,,,,,,,,,,,,,,,,,,,,,,,,,,,,,,,,,,,,,,,,,,,,,,,,,,,,,,,,,,,,,,,,,,,,,,,,,,,,,,,,,,,,,,,,return,12.152415, mosquito sound in ear,0,61,61,53,1,SoundMST/Mosquito_B.wav,SAME,,
,,,,,,,,,,,,,,5f33f5c671dbfc2622aecda4,63,2021-03-24_15h17.05.185,CombinedMST_OA,2020.2.10,Win32,60,,,,,,,,,,,,,,,,,,,,,,,,,,,,,,,,,,,,,,,,,,,,,,,,,,,,,,,,,,,,,,,,,,,,,,,,,,,,,,,,,,,,,,,,,,,,,,,,,,,,,return,8.163635, church bell again,0,62,62,26,1,SoundMST/Chime_B.wav,SIMILAR,,
,,,,,,,,,,,,,,5f33f5c671dbfc2622aecda4,63,2021-03-24_15h17.05.185,CombinedMST_OA,2020.2.10,Win32,60,,,,,,,,,,,,,,,,,,,,,,,,,,,,,,,,,,,,,,,,,,,,,,,,,,,,,,,,,,,,,,,,,,,,,,,,,,,,,,,,,,,,,,,,,,,,,,,,,,,,,return,12.66342, coins being slid off table again,0,63,63,18,1,SoundMST/Coin_E.wav,SIMILAR,,
,,,,,,,,,,,,,,5f33f5c671dbfc2622aecda4,63,2021-03-24_15h17.05.185,CombinedMST_OA,2020.2.10,Win32,60,,,,,,,,,,,,,,,,,,,,,,,,,,,,,,,,,,,,,,,,,,,,,,,,,,,,,,,,,,,,,,,,,,,,,,,,,,,,,,,,,,,,,,,,,,,,,,,,,,,,,return,6.6982, chicken clucking,0,64,64,60,1,SoundMST/Chicken_A.wav,SAME,,
,,,,,,,,,,,,,,5f33f5c671dbfc2622aecda4,63,2021-03-24_15h17.05.185,CombinedMST_OA,2020.2.10,Win32,60,,,,,,,,,,,,,,,,,,,,,,,,,,,,,,,,,,,,,,,,,,,,,,,,,,,,,,,,,,,,,,,,,,,,,,,,,,,,,,,,,,,,,,,,,,,,,,,,,,,,,return,8.008425, man coughing again,0,65,65,6,1,SoundMST/Cough_F.wav,SIMILAR,,
,,,,,,,,,,,,,,5f33f5c671dbfc2622aecda4,63,2021-03-24_15h17.05.185,CombinedMST_OA,2020.2.10,Win32,60,,,,,,,,,,,,,,,,,,,,,,,,,,,,,,,,,,,,,,,,,,,,,,,,,,,,,,,,,,,,,,,,,,,,,,,,,,,,,,,,,,,,,,,,,,,,,,,,,,,,,return,11.452615," sneezing sound, probably a man",0,66,66,64,1,SoundMST/Sneeze_B.wav,SAME,,
,,,,,,,,,,,,,,5f33f5c671dbfc2622aecda4,63,2021-03-24_15h17.05.185,CombinedMST_OA,2020.2.10,Win32,60,,,,,,,,,,,,,,,,,,,,,,,,,,,,,,,,,,,,,,,,,,,,,,,,,,,,,,,,,,,,,,,,,,,,,,,,,,,,,,,,,,,,,,,,,,,,,,,,,,,,,return,15.112715, bird chirping beautifully,0,67,67,31,1,SoundMST/Bird_E.wav,SIMILAR,,
,,,,,,,,,,,,,,5f33f5c671dbfc2622aecda4,63,2021-03-24_15h17.05.185,CombinedMST_OA,2020.2.10,Win32,60,,,,,,,,,,,,,,,,,,,,,,,,,,,,,,,,,,,,,,,,,,,,,,,,,,,,,,,,,,,,,,,,,,,,,,,,,,,,,,,,,,,,,,,,,,,,,,,,,,,,,return,13.240505, helicoptor rotor blades,0,68,68,79,1,SoundMST/Helicopter_A.wav,SAME,,
,,,,,,,,,,,,,,5f33f5c671dbfc2622aecda4,63,2021-03-24_15h17.05.185,CombinedMST_OA,2020.2.10,Win32,60,,,,,,,,,,,,,,,,,,,,,,,,,,,,,,,,,,,,,,,,,,,,,,,,,,,,,,,,,,,,,,,,,,,,,,,,,,,,,,,,,,,,,,,,,,,,,,,,,,,,,return,8.61865, lion roaring gently,0,69,69,19,1,SoundMST/Growl_H.wav,SIMILAR,,
,,,,,,,,,,,,,,5f33f5c671dbfc2622aecda4,63,2021-03-24_15h17.05.185,CombinedMST_OA,2020.2.10,Win32,60,,,,,,,,,,,,,,,,,,,,,,,,,,,,,,,,,,,,,,,,,,,,,,,,,,,,,,,,,,,,,,,,,,,,,,,,,,,,,,,,,,,,,,,,,,,,,,,,,,,,,return,13.33527, a few people clapping,0,70,70,47,1,SoundMST/Clap_B.wav,SIMILAR,,
,,,,,,,,,,,,,,5f33f5c671dbfc2622aecda4,63,2021-03-24_15h17.05.185,CombinedMST_OA,2020.2.10,Win32,60,,,,,,,,,,,,,,,,,,,,,,,,,,,,,,,,,,,,,,,,,,,,,,,,,,,,,,,,,,,,,,,,,,,,,,,,,,,,,,,,,,,,,,,,,,,,,,,,,,,,,return,7.10337, man snoring again,0,71,71,10,1,SoundMST/Snore_E.wav,SIMILAR,,
,,,,,,,,,,,,,,5f33f5c671dbfc2622aecda4,63,2021-03-24_15h17.05.185,CombinedMST_OA,2020.2.10,Win32,60,,,,,,,,,,,,,,,,,,,,,,,,,,,,,,,,,,,,,,,,,,,,,,,,,,,,,,,,,,,,,,,,,,,,,,,,,,,,,,,,,,,,,,,,,,,,,,,,,,,,,return,10.08714, telephone ringing again,0,72,72,37,1,SoundMST/Phone_D.wav,SIMILAR,,
,,,,,,,,,,,,,,5f33f5c671dbfc2622aecda4,63,2021-03-24_15h17.05.185,CombinedMST_OA,2020.2.10,Win32,60,,,,,,,,,,,,,,,,,,,,,,,,,,,,,,,,,,,,,,,,,,,,,,,,,,,,,,,,,,,,,,,,,,,,,,,,,,,,,,,,,,,,,,,,,,,,,,,,,,,,,return,16.61245, car engine igniting,0,73,73,46,1,SoundMST/CarStart_E.wav,SIMILAR,,
,,,,,,,,,,,,,,5f33f5c671dbfc2622aecda4,63,2021-03-24_15h17.05.185,CombinedMST_OA,2020.2.10,Win32,60,,,,,,,,,,,,,,,,,,,,,,,,,,,,,,,,,,,,,,,,,,,,,,,,,,,,,,,,,,,,,,,,,,,,,,,,,,,,,,,,,,,,,,,,,,,,,,,,,,,,,return,9.498145, toilet flushing,0,74,74,51,1,SoundMST/Toilet_B.wav,SAME,,
,,,,,,,,,,,,,,5f33f5c671dbfc2622aecda4,63,2021-03-24_15h17.05.185,CombinedMST_OA,2020.2.10,Win32,60,,,,,,,,,,,,,,,,,,,,,,,,,,,,,,,,,,,,,,,,,,,,,,,,,,,,,,,,,,,,,,,,,,,,,,,,,,,,,,,,,,,,,,,,,,,,,,,,,,,,,return,7.766395, bird tweeting,0,75,75,7,1,SoundMST/Bird_A.wav,SIMILAR,,
,,,,,,,,,,,,,,5f33f5c671dbfc2622aecda4,63,2021-03-24_15h17.05.185,CombinedMST_OA,2020.2.10,Win32,60,,,,,,,,,,,,,,,,,,,,,,,,,,,,,,,,,,,,,,,,,,,,,,,,,,,,,,,,,,,,,,,,,,,,,,,,,,,,,,,,,,,,,,,,,,,,,,,,,,,,,return,6.48367, baby  cooing,0,76,76,28,1,SoundMST/Baby_F.wav,SIMILAR,,
,,,,,,,,,,,,,,5f33f5c671dbfc2622aecda4,63,2021-03-24_15h17.05.185,CombinedMST_OA,2020.2.10,Win32,60,,,,,,,,,,,,,,,,,,,,,,,,,,,,,,,,,,,,,,,,,,,,,,,,,,,,,,,,,,,,,,,,,,,,,,,,,,,,,,,,,,,,,,,,,,,,,,,,,,,,,return,8.636965, crow cawing again,0,77,77,15,1,SoundMST/Crow_A.wav,SIMILAR,,
,,,,,,,,,,,,,,5f33f5c671dbfc2622aecda4,63,2021-03-24_15h17.05.185,CombinedMST_OA,2020.2.10,Win32,60,,,,,,,,,,,,,,,,,,,,,,,,,,,,,,,,,,,,,,,,,,,,,,,,,,,,,,,,,,,,,,,,,,,,,,,,,,,,,,,,,,,,,,,,,,,,,,,,,,,,,return,11.91343, small hammer against wood,0,78,78,76,1,SoundMST/Hammer_A.wav,SAME,,
,,,,,,,,,,,,,,5f33f5c671dbfc2622aecda4,63,2021-03-24_15h17.05.185,CombinedMST_OA,2020.2.10,Win32,60,,,,,,,,,,,,,,,,,,,,,,,,,,,,,,,,,,,,,,,,,,,,,,,,,,,,,,,,,,,,,,,,,,,,,,,,,,,,,,,,,,,,,,,,,,,,,,,,,,,,,return,11.76788, heavy footsteps again,0,79,79,16,1,SoundMST/Footsteps_F.wav,SIMILAR,,
,,,,,,,,,,,,,,5f33f5c671dbfc2622aecda4,63,2021-03-24_15h17.05.185,CombinedMST_OA,2020.2.10,Win32,60,,,,,,,,,,,,,,,,,,,,,,,,,,,,,,,,,,,,,,,,,,,,,,,,,,,,,,,,,,,,,,,,,,,,,,,,,,,,,,,,,,,,,,,,,,,,,,,,,,,,,return,8.958835, camera taking photo,0,80,80,84,1,SoundMST/Camera.wav,SAME,,
,,,,,,,,,,,,,,5f33f5c671dbfc2622aecda4,63,2021-03-24_15h17.05.185,CombinedMST_OA,2020.2.10,Win32,60,,,,,,,,,,,,,,,,,,,,,,,,,,,,,,,,,,,,,,,,,,,,,,,,,,,,,,,,,,,,,,,,,,,,,,,,,,,,,,,,,,,,,,,,,,,,,,,,,,,,,return,12.0969, car engine starting,0,81,81,22,1,SoundMST/CarStart_F.wav,SIMILAR,,
,,,,,,,,,,,,,,5f33f5c671dbfc2622aecda4,63,2021-03-24_15h17.05.185,CombinedMST_OA,2020.2.10,Win32,60,,,,,,,,,,,,,,,,,,,,,,,,,,,,,,,,,,,,,,,,,,,,,,,,,,,,,,,,,,,,,,,,,,,,,,,,,,,,,,,,,,,,,,,,,,,,,,,,,,,,,return,11.51381, person blowing whistle,0,82,82,35,1,SoundMST/Whistle_B.wav,SIMILAR,,
,,,,,,,,,,,,,,5f33f5c671dbfc2622aecda4,63,2021-03-24_15h17.05.185,CombinedMST_OA,2020.2.10,Win32,60,,,,,,,,,,,,,,,,,,,,,,,,,,,,,,,,,,,,,,,,,,,,,,,,,,,,,,,,,,,,,,,,,,,,,,,,,,,,,,,,,,,,,,,,,,,,,,,,,,,,,return,8.17452, no idea,0,83,83,85,1,SoundMST/Droplet_B.wav,SAME,,
,,,,,,,,,,,,,,5f33f5c671dbfc2622aecda4,63,2021-03-24_15h17.05.185,CombinedMST_OA,2020.2.10,Win32,60,,,,,,,,,,,,,,,,,,,,,,,,,,,,,,,,,,,,,,,,,,,,,,,,,,,,,,,,,,,,,,,,,,,,,,,,,,,,,,,,,,,,,,,,,,,,,,,,,,,,,return,11.065045, people laughing at joke,0,84,84,33,1,SoundMST/Laugh_A.wav,SIMILAR,,
,,,,,,,,,,,,,,5f33f5c671dbfc2622aecda4,63,2021-03-24_15h17.05.185,CombinedMST_OA,2020.2.10,Win32,60,,,,,,,,,,,,,,,,,,,,,,,,,,,,,,,,,,,,,,,,,,,,,,,,,,,,,,,,,,,,,,,,,,,,,,,,,,,,,,,,,,,,,,,,,,,,,,,,,,,,,return,10.07007, a sort of a horn sound,0,85,85,70,1,SoundMST/Airhorn.wav,SAME,,
,,,,,,,,,,,,,,5f33f5c671dbfc2622aecda4,63,2021-03-24_15h17.05.185,CombinedMST_OA,2020.2.10,Win32,60,,,,,,,,,,,,,,,,,,,,,,,,,,,,,,,,,,,,,,,,,,,,,,,,,,,,,,,,,,,,,,,,,,,,,,,,,,,,,,,,,,,,,,,,,,,,,,,,,,,,,return,15.903595, squeaky toy being squeezed,0,86,86,58,1,SoundMST/Puff_A.wav,SAME,,
,,,,,,,,,,,,,,5f33f5c671dbfc2622aecda4,63,2021-03-24_15h17.05.185,CombinedMST_OA,2020.2.10,Win32,60,,,,,,,,,,,,,,,,,,,,,,,,,,,,,,,,,,,,,,,,,,,,,,,,,,,,,,,,,,,,,,,,,,,,,,,,,,,,,,,,,,,,,,,,,,,,,,,,,,,,,return,9.545815, heartbeat sound,0,87,87,56,1,SoundMST/Heartbeat.wav,SAME,,
,,,,,,,,,,,,,,5f33f5c671dbfc2622aecda4,63,2021-03-24_15h17.05.185,CombinedMST_OA,2020.2.10,Win32,60,,,,,,,,,,,,,,,,,,,,,,,,,,,,,,,,,,,,,,,,,,,,,,,,,,,,,,,,,,,,,,,,,,,,,,,,,,,,,,,,,,,,,,,,,,,,,,,,,,,,,,,,,,,,,,,space,20.738495
