VolumeContinueKey.keys,VolumeContinueKey.rt,HeadphoneContinueKey.keys,HeadphoneContinueKey.rt,CheckResp.keys,CheckResp.corr,CheckResp.rt,trials_3.thisRepN,trials_3.thisTrialN,trials_3.thisN,trials_3.thisIndex,trials_3.ran,File,Correct,participant,Age,date,expName,psychopyVersion,OS,frameRate,Welcome0ContKey.keys,Welcome0ContKey.rt,key_resp.keys,key_resp.rt,WelcomeSound2ContKey.keys,WelcomeSound2ContKey.rt,WelcomeContinueKey2.keys,WelcomeContinueKey2.rt,PracticeSoundKey.keys,PracticeSoundKey.corr,PracticeSoundKey.rt,SoundPracticeLoop.thisRepN,SoundPracticeLoop.thisTrialN,SoundPracticeLoop.thisN,SoundPracticeLoop.thisIndex,SoundPracticeLoop.ran,SoundMST_File,SoundCorrect,Correct2,SoundType,Trial,MSTSoundStrtKey.keys,MSTSoundStrtKey.rt,MSTSoundKey.keys,MSTSoundKey.corr,MSTSoundKey.rt,MSTSoundLoop.thisRepN,MSTSoundLoop.thisTrialN,MSTSoundLoop.thisN,MSTSoundLoop.thisIndex,MSTSoundLoop.ran,AttnCheck2Keys.keys,AttnCheck2Keys.rt,AttnCheck2Resp.text,SoundTask.thisRepN,SoundTask.thisTrialN,SoundTask.thisN,SoundTask.thisIndex,SoundTask.ran,Counterbalance.thisRepN,Counterbalance.thisTrialN,Counterbalance.thisN,Counterbalance.thisIndex,Counterbalance.ran,WordOrder,SoundOrder,ContinueResp.keys,ContinueResp.rt,Wel2ContinueKey.keys,Wel2ContinueKey.rt,Practice_resp.keys,Practice_resp.corr,Practice_resp.rt,PracticeTrials.thisRepN,PracticeTrials.thisTrialN,PracticeTrials.thisN,PracticeTrials.thisIndex,PracticeTrials.ran,SoundFile,Type,StartTast.keys,StartTast.rt,MST_resp.keys,MST_resp.corr,MST_resp.rt,trials.thisRepN,trials.thisTrialN,trials.thisN,trials.thisIndex,trials.ran,WordCorrect,Correct_type,WordType,Condition,Attn1ContKey.keys,Attn1ContKey.rt,AttnCheckResp.text,SyllblCheckContKey.keys,SyllblCheckContKey.rt,SyllblCheckResp.keys,SyllblCheckResp.corr,SyllblCheckResp.rt,trials_2.thisRepN,trials_2.thisTrialN,trials_2.thisN,trials_2.thisIndex,trials_2.ran,Target,Word1,Word2,Word3,WordTask.thisRepN,WordTask.thisTrialN,WordTask.thisN,WordTask.thisIndex,WordTask.ran,key_resp_4.keys,key_resp_4.rt,GuessSoundIntro2Cont.keys,GuessSoundIntro2Cont.rt,GSSubmit.keys,GSSubmit.rt,GSResponse.text,GuessSoundLoop.thisRepN,GuessSoundLoop.thisTrialN,GuessSoundLoop.thisN,GuessSoundLoop.thisIndex,GuessSoundLoop.ran,GS_File,GS_Type,ExitKey.keys,ExitKey.rt
space,4.100105,space,20.71882,1,0,5.77519,0,0,0,4,1,Headphone/t3_1.wav,3,5a9e9fc46219a30001f54994,63,2021-03-25_06h10.17.115,CombinedMST_OA,2020.2.10,MacIntel,60,,,,,,,,,,,,,,,,,,,,,,,,,,,,,,,,,,,,,,,,,,,,,,,,,,,,,,,,,,,,,,,,,,,,,,,,,,,,,,,,,,,,,,,,,,,,,,,,,,,,,,,,,,,,,,,,
,,,,1,0,1.560005,0,1,1,5,1,Headphone/t3_2.wav,3,5a9e9fc46219a30001f54994,63,2021-03-25_06h10.17.115,CombinedMST_OA,2020.2.10,MacIntel,60,,,,,,,,,,,,,,,,,,,,,,,,,,,,,,,,,,,,,,,,,,,,,,,,,,,,,,,,,,,,,,,,,,,,,,,,,,,,,,,,,,,,,,,,,,,,,,,,,,,,,,,,,,,,,,,,
,,,,2,0,0.537975,0,2,2,0,1,Headphone/t1_1.wav,1,5a9e9fc46219a30001f54994,63,2021-03-25_06h10.17.115,CombinedMST_OA,2020.2.10,MacIntel,60,,,,,,,,,,,,,,,,,,,,,,,,,,,,,,,,,,,,,,,,,,,,,,,,,,,,,,,,,,,,,,,,,,,,,,,,,,,,,,,,,,,,,,,,,,,,,,,,,,,,,,,,,,,,,,,,
,,,,3,0,1.686805,0,3,3,2,1,Headphone/t2_1.wav,2,5a9e9fc46219a30001f54994,63,2021-03-25_06h10.17.115,CombinedMST_OA,2020.2.10,MacIntel,60,,,,,,,,,,,,,,,,,,,,,,,,,,,,,,,,,,,,,,,,,,,,,,,,,,,,,,,,,,,,,,,,,,,,,,,,,,,,,,,,,,,,,,,,,,,,,,,,,,,,,,,,,,,,,,,,
,,,,3,0,1.47175,0,4,4,3,1,Headphone/t2_2.wav,2,5a9e9fc46219a30001f54994,63,2021-03-25_06h10.17.115,CombinedMST_OA,2020.2.10,MacIntel,60,,,,,,,,,,,,,,,,,,,,,,,,,,,,,,,,,,,,,,,,,,,,,,,,,,,,,,,,,,,,,,,,,,,,,,,,,,,,,,,,,,,,,,,,,,,,,,,,,,,,,,,,,,,,,,,,
,,,,3,0,0.218845,0,5,5,1,1,Headphone/t1_2.wav,1,5a9e9fc46219a30001f54994,63,2021-03-25_06h10.17.115,CombinedMST_OA,2020.2.10,MacIntel,60,,,,,,,,,,,,,,,,,,,,,,,,,,,,,,,,,,,,,,,,,,,,,,,,,,,,,,,,,,,,,,,,,,,,,,,,,,,,,,,,,,,,,,,,,,,,,,,,,,,,,,,,,,,,,,,,
,,,,,,,,,,,,,,5a9e9fc46219a30001f54994,63,2021-03-25_06h10.17.115,CombinedMST_OA,2020.2.10,MacIntel,60,space,15.14364,space,23.20444,space,18.20383,space,5.15334,2,1,12.470835,0,0,0,0,1,Practice/Seagull_A.wav,2,3,NEW,Practice,,,,,,,,,,,,,,,,,,,,,,,,,,,,,,,,,,,,,,,,,,,,,,,,,,,,,,,,,,,,,,,,,,,,,,,,,,,,,,,,,,,,,,,,,,,
,,,,,,,,,,,,,,5a9e9fc46219a30001f54994,63,2021-03-25_06h10.17.115,CombinedMST_OA,2020.2.10,MacIntel,60,,,,,,,,,2,1,2.62373,0,1,1,1,1,Practice/Skid_B.wav,2,3,NEW,Practice,,,,,,,,,,,,,,,,,,,,,,,,,,,,,,,,,,,,,,,,,,,,,,,,,,,,,,,,,,,,,,,,,,,,,,,,,,,,,,,,,,,,,,,,,,,
,,,,,,,,,,,,,,5a9e9fc46219a30001f54994,63,2021-03-25_06h10.17.115,CombinedMST_OA,2020.2.10,MacIntel,60,,,,,,,,,1,1,0.417215,0,2,2,2,1,Practice/Seagull_A.wav,1,1,OLD,Practice,,,,,,,,,,,,,,,,,,,,,,,,,,,,,,,,,,,,,,,,,,,,,,,,,,,,,,,,,,,,,,,,,,,,,,,,,,,,,,,,,,,,,,,,,,,
,,,,,,,,,,,,,,5a9e9fc46219a30001f54994,63,2021-03-25_06h10.17.115,CombinedMST_OA,2020.2.10,MacIntel,60,,,,,,,,,2,1,1.20159,0,3,3,3,1,Practice/Gargle_A.wav,2,3,NEW,Practice,,,,,,,,,,,,,,,,,,,,,,,,,,,,,,,,,,,,,,,,,,,,,,,,,,,,,,,,,,,,,,,,,,,,,,,,,,,,,,,,,,,,,,,,,,,
,,,,,,,,,,,,,,5a9e9fc46219a30001f54994,63,2021-03-25_06h10.17.115,CombinedMST_OA,2020.2.10,MacIntel,60,,,,,,,,,2,1,1.17081,0,4,4,4,1,Practice/Gargle_B.wav,2,2,SIMILAR,Practice,,,,,,,,,,,,,,,,,,,,,,,,,,,,,,,,,,,,,,,,,,,,,,,,,,,,,,,,,,,,,,,,,,,,,,,,,,,,,,,,,,,,,,,,,,,
,,,,,,,,,,,,,,5a9e9fc46219a30001f54994,63,2021-03-25_06h10.17.115,CombinedMST_OA,2020.2.10,MacIntel,60,,,,,,,,,,,,,,,,,SoundMST/Elephant_C.wav,2,3,NEW,A,space,5.9585,2,1,0.56682,0,0,0,0,1,,,,,,,,,,,,,,,,,,,,,,,,,,,,,,,,,,,,,,,,,,,,,,,,,,,,,,,,,,,,,,,,,,,,,,,,,,,,,,,,,
,,,,,,,,,,,,,,5a9e9fc46219a30001f54994,63,2021-03-25_06h10.17.115,CombinedMST_OA,2020.2.10,MacIntel,60,,,,,,,,,,,,,,,,,SoundMST/Thunder_A.wav,2,3,NEW,A,,,2,1,2.108955,0,1,1,1,1,,,,,,,,,,,,,,,,,,,,,,,,,,,,,,,,,,,,,,,,,,,,,,,,,,,,,,,,,,,,,,,,,,,,,,,,,,,,,,,,,
,,,,,,,,,,,,,,5a9e9fc46219a30001f54994,63,2021-03-25_06h10.17.115,CombinedMST_OA,2020.2.10,MacIntel,60,,,,,,,,,,,,,,,,,SoundMST/Chime_B.wav,2,3,NEW,A,,,2,1,0.06808,0,2,2,2,1,,,,,,,,,,,,,,,,,,,,,,,,,,,,,,,,,,,,,,,,,,,,,,,,,,,,,,,,,,,,,,,,,,,,,,,,,,,,,,,,,
,,,,,,,,,,,,,,5a9e9fc46219a30001f54994,63,2021-03-25_06h10.17.115,CombinedMST_OA,2020.2.10,MacIntel,60,,,,,,,,,,,,,,,,,SoundMST/Toilet_B.wav,2,3,NEW,A,,,2,1,5.457705,0,3,3,3,1,,,,,,,,,,,,,,,,,,,,,,,,,,,,,,,,,,,,,,,,,,,,,,,,,,,,,,,,,,,,,,,,,,,,,,,,,,,,,,,,,
,,,,,,,,,,,,,,5a9e9fc46219a30001f54994,63,2021-03-25_06h10.17.115,CombinedMST_OA,2020.2.10,MacIntel,60,,,,,,,,,,,,,,,,,SoundMST/Typing.wav,2,3,NEW,A,,,2,1,0.90287,0,4,4,4,1,,,,,,,,,,,,,,,,,,,,,,,,,,,,,,,,,,,,,,,,,,,,,,,,,,,,,,,,,,,,,,,,,,,,,,,,,,,,,,,,,
,,,,,,,,,,,,,,5a9e9fc46219a30001f54994,63,2021-03-25_06h10.17.115,CombinedMST_OA,2020.2.10,MacIntel,60,,,,,,,,,,,,,,,,,SoundMST/Pour_B.wav,2,3,NEW,A,,,2,1,1.424315,0,5,5,5,1,,,,,,,,,,,,,,,,,,,,,,,,,,,,,,,,,,,,,,,,,,,,,,,,,,,,,,,,,,,,,,,,,,,,,,,,,,,,,,,,,
,,,,,,,,,,,,,,5a9e9fc46219a30001f54994,63,2021-03-25_06h10.17.115,CombinedMST_OA,2020.2.10,MacIntel,60,,,,,,,,,,,,,,,,,SoundMST/Sleighbells_B.wav,2,3,NEW,A,,,2,1,0.48914,0,6,6,6,1,,,,,,,,,,,,,,,,,,,,,,,,,,,,,,,,,,,,,,,,,,,,,,,,,,,,,,,,,,,,,,,,,,,,,,,,,,,,,,,,,
,,,,,,,,,,,,,,5a9e9fc46219a30001f54994,63,2021-03-25_06h10.17.115,CombinedMST_OA,2020.2.10,MacIntel,60,,,,,,,,,,,,,,,,,SoundMST/Buzz.wav,2,3,NEW,A,,,2,1,0.493495,0,7,7,7,1,,,,,,,,,,,,,,,,,,,,,,,,,,,,,,,,,,,,,,,,,,,,,,,,,,,,,,,,,,,,,,,,,,,,,,,,,,,,,,,,,
,,,,,,,,,,,,,,5a9e9fc46219a30001f54994,63,2021-03-25_06h10.17.115,CombinedMST_OA,2020.2.10,MacIntel,60,,,,,,,,,,,,,,,,,SoundMST/Baby_F.wav,2,3,NEW,A,,,2,1,0.5588,0,8,8,8,1,,,,,,,,,,,,,,,,,,,,,,,,,,,,,,,,,,,,,,,,,,,,,,,,,,,,,,,,,,,,,,,,,,,,,,,,,,,,,,,,,
,,,,,,,,,,,,,,5a9e9fc46219a30001f54994,63,2021-03-25_06h10.17.115,CombinedMST_OA,2020.2.10,MacIntel,60,,,,,,,,,,,,,,,,,SoundMST/Thunder_A.wav,1,1,OLD,A,,,1,1,1.08881,0,9,9,9,1,,,,,,,,,,,,,,,,,,,,,,,,,,,,,,,,,,,,,,,,,,,,,,,,,,,,,,,,,,,,,,,,,,,,,,,,,,,,,,,,,
,,,,,,,,,,,,,,5a9e9fc46219a30001f54994,63,2021-03-25_06h10.17.115,CombinedMST_OA,2020.2.10,MacIntel,60,,,,,,,,,,,,,,,,,SoundMST/Mosquito_B.wav,2,3,NEW,A,,,2,1,0.20233,0,10,10,10,1,,,,,,,,,,,,,,,,,,,,,,,,,,,,,,,,,,,,,,,,,,,,,,,,,,,,,,,,,,,,,,,,,,,,,,,,,,,,,,,,,
,,,,,,,,,,,,,,5a9e9fc46219a30001f54994,63,2021-03-25_06h10.17.115,CombinedMST_OA,2020.2.10,MacIntel,60,,,,,,,,,,,,,,,,,SoundMST/DialTone.wav,2,3,NEW,A,,,2,1,0.085455,0,11,11,11,1,,,,,,,,,,,,,,,,,,,,,,,,,,,,,,,,,,,,,,,,,,,,,,,,,,,,,,,,,,,,,,,,,,,,,,,,,,,,,,,,,
,,,,,,,,,,,,,,5a9e9fc46219a30001f54994,63,2021-03-25_06h10.17.115,CombinedMST_OA,2020.2.10,MacIntel,60,,,,,,,,,,,,,,,,,SoundMST/Elephant_A.wav,2,2,SIMILAR,A,,,1,0,0.519115,0,12,12,12,1,,,,,,,,,,,,,,,,,,,,,,,,,,,,,,,,,,,,,,,,,,,,,,,,,,,,,,,,,,,,,,,,,,,,,,,,,,,,,,,,,
,,,,,,,,,,,,,,5a9e9fc46219a30001f54994,63,2021-03-25_06h10.17.115,CombinedMST_OA,2020.2.10,MacIntel,60,,,,,,,,,,,,,,,,,SoundMST/Writing_A.wav,2,3,NEW,A,,,2,1,0.88668,0,13,13,13,1,,,,,,,,,,,,,,,,,,,,,,,,,,,,,,,,,,,,,,,,,,,,,,,,,,,,,,,,,,,,,,,,,,,,,,,,,,,,,,,,,
,,,,,,,,,,,,,,5a9e9fc46219a30001f54994,63,2021-03-25_06h10.17.115,CombinedMST_OA,2020.2.10,MacIntel,60,,,,,,,,,,,,,,,,,SoundMST/Faucet_A.wav,2,3,NEW,A,,,2,1,0.270695,0,14,14,14,1,,,,,,,,,,,,,,,,,,,,,,,,,,,,,,,,,,,,,,,,,,,,,,,,,,,,,,,,,,,,,,,,,,,,,,,,,,,,,,,,,
,,,,,,,,,,,,,,5a9e9fc46219a30001f54994,63,2021-03-25_06h10.17.115,CombinedMST_OA,2020.2.10,MacIntel,60,,,,,,,,,,,,,,,,,SoundMST/Typing.wav,1,1,OLD,A,,,2,0,0.493425,0,15,15,15,1,,,,,,,,,,,,,,,,,,,,,,,,,,,,,,,,,,,,,,,,,,,,,,,,,,,,,,,,,,,,,,,,,,,,,,,,,,,,,,,,,
,,,,,,,,,,,,,,5a9e9fc46219a30001f54994,63,2021-03-25_06h10.17.115,CombinedMST_OA,2020.2.10,MacIntel,60,,,,,,,,,,,,,,,,,SoundMST/Sleighbells_B.wav,1,1,OLD,A,,,1,1,0.568835,0,16,16,16,1,,,,,,,,,,,,,,,,,,,,,,,,,,,,,,,,,,,,,,,,,,,,,,,,,,,,,,,,,,,,,,,,,,,,,,,,,,,,,,,,,
,,,,,,,,,,,,,,5a9e9fc46219a30001f54994,63,2021-03-25_06h10.17.115,CombinedMST_OA,2020.2.10,MacIntel,60,,,,,,,,,,,,,,,,,SoundMST/Wind_B.wav,2,3,NEW,A,,,2,1,0.90745,0,17,17,17,1,,,,,,,,,,,,,,,,,,,,,,,,,,,,,,,,,,,,,,,,,,,,,,,,,,,,,,,,,,,,,,,,,,,,,,,,,,,,,,,,,
,,,,,,,,,,,,,,5a9e9fc46219a30001f54994,63,2021-03-25_06h10.17.115,CombinedMST_OA,2020.2.10,MacIntel,60,,,,,,,,,,,,,,,,,SoundMST/Toilet_B.wav,1,1,OLD,A,,,1,1,0.489595,0,18,18,18,1,,,,,,,,,,,,,,,,,,,,,,,,,,,,,,,,,,,,,,,,,,,,,,,,,,,,,,,,,,,,,,,,,,,,,,,,,,,,,,,,,
,,,,,,,,,,,,,,5a9e9fc46219a30001f54994,63,2021-03-25_06h10.17.115,CombinedMST_OA,2020.2.10,MacIntel,60,,,,,,,,,,,,,,,,,SoundMST/Pour_C.wav,2,2,SIMILAR,A,,,1,0,0.552775,0,19,19,19,1,,,,,,,,,,,,,,,,,,,,,,,,,,,,,,,,,,,,,,,,,,,,,,,,,,,,,,,,,,,,,,,,,,,,,,,,,,,,,,,,,
,,,,,,,,,,,,,,5a9e9fc46219a30001f54994,63,2021-03-25_06h10.17.115,CombinedMST_OA,2020.2.10,MacIntel,60,,,,,,,,,,,,,,,,,SoundMST/Chime_A.wav,2,2,SIMILAR,A,,,1,0,0.022265,0,20,20,20,1,,,,,,,,,,,,,,,,,,,,,,,,,,,,,,,,,,,,,,,,,,,,,,,,,,,,,,,,,,,,,,,,,,,,,,,,,,,,,,,,,
,,,,,,,,,,,,,,5a9e9fc46219a30001f54994,63,2021-03-25_06h10.17.115,CombinedMST_OA,2020.2.10,MacIntel,60,,,,,,,,,,,,,,,,,SoundMST/Buzz.wav,1,1,OLD,A,,,1,1,0.336135,0,21,21,21,1,,,,,,,,,,,,,,,,,,,,,,,,,,,,,,,,,,,,,,,,,,,,,,,,,,,,,,,,,,,,,,,,,,,,,,,,,,,,,,,,,
,,,,,,,,,,,,,,5a9e9fc46219a30001f54994,63,2021-03-25_06h10.17.115,CombinedMST_OA,2020.2.10,MacIntel,60,,,,,,,,,,,,,,,,,SoundMST/Writing_C.wav,2,2,SIMILAR,A,,,2,1,0.785735,0,22,22,22,1,,,,,,,,,,,,,,,,,,,,,,,,,,,,,,,,,,,,,,,,,,,,,,,,,,,,,,,,,,,,,,,,,,,,,,,,,,,,,,,,,
,,,,,,,,,,,,,,5a9e9fc46219a30001f54994,63,2021-03-25_06h10.17.115,CombinedMST_OA,2020.2.10,MacIntel,60,,,,,,,,,,,,,,,,,SoundMST/Mosquito_B.wav,1,1,OLD,A,,,1,1,0.37126,0,23,23,23,1,,,,,,,,,,,,,,,,,,,,,,,,,,,,,,,,,,,,,,,,,,,,,,,,,,,,,,,,,,,,,,,,,,,,,,,,,,,,,,,,,
,,,,,,,,,,,,,,5a9e9fc46219a30001f54994,63,2021-03-25_06h10.17.115,CombinedMST_OA,2020.2.10,MacIntel,60,,,,,,,,,,,,,,,,,SoundMST/Cough_C.wav,2,3,NEW,A,,,2,1,1.19106,0,24,24,24,1,,,,,,,,,,,,,,,,,,,,,,,,,,,,,,,,,,,,,,,,,,,,,,,,,,,,,,,,,,,,,,,,,,,,,,,,,,,,,,,,,
,,,,,,,,,,,,,,5a9e9fc46219a30001f54994,63,2021-03-25_06h10.17.115,CombinedMST_OA,2020.2.10,MacIntel,60,,,,,,,,,,,,,,,,,SoundMST/DialTone.wav,1,1,OLD,A,,,1,1,1.35307,0,25,25,25,1,,,,,,,,,,,,,,,,,,,,,,,,,,,,,,,,,,,,,,,,,,,,,,,,,,,,,,,,,,,,,,,,,,,,,,,,,,,,,,,,,
,,,,,,,,,,,,,,5a9e9fc46219a30001f54994,63,2021-03-25_06h10.17.115,CombinedMST_OA,2020.2.10,MacIntel,60,,,,,,,,,,,,,,,,,SoundMST/Puff_A.wav,2,3,NEW,A,,,2,1,0.55463,0,26,26,26,1,,,,,,,,,,,,,,,,,,,,,,,,,,,,,,,,,,,,,,,,,,,,,,,,,,,,,,,,,,,,,,,,,,,,,,,,,,,,,,,,,
,,,,,,,,,,,,,,5a9e9fc46219a30001f54994,63,2021-03-25_06h10.17.115,CombinedMST_OA,2020.2.10,MacIntel,60,,,,,,,,,,,,,,,,,SoundMST/Heartbeat.wav,2,3,NEW,A,,,2,1,0.519655,0,27,27,27,1,,,,,,,,,,,,,,,,,,,,,,,,,,,,,,,,,,,,,,,,,,,,,,,,,,,,,,,,,,,,,,,,,,,,,,,,,,,,,,,,,
,,,,,,,,,,,,,,5a9e9fc46219a30001f54994,63,2021-03-25_06h10.17.115,CombinedMST_OA,2020.2.10,MacIntel,60,,,,,,,,,,,,,,,,,SoundMST/IceDrop.wav,2,3,NEW,A,,,2,1,0.939895,0,28,28,28,1,,,,,,,,,,,,,,,,,,,,,,,,,,,,,,,,,,,,,,,,,,,,,,,,,,,,,,,,,,,,,,,,,,,,,,,,,,,,,,,,,
,,,,,,,,,,,,,,5a9e9fc46219a30001f54994,63,2021-03-25_06h10.17.115,CombinedMST_OA,2020.2.10,MacIntel,60,,,,,,,,,,,,,,,,,SoundMST/Bird_C.wav,2,3,NEW,A,,,2,1,0.655505,0,29,29,29,1,,,,,,,,,,,,,,,,,,,,,,,,,,,,,,,,,,,,,,,,,,,,,,,,,,,,,,,,,,,,,,,,,,,,,,,,,,,,,,,,,
,,,,,,,,,,,,,,5a9e9fc46219a30001f54994,63,2021-03-25_06h10.17.115,CombinedMST_OA,2020.2.10,MacIntel,60,,,,,,,,,,,,,,,,,SoundMST/Baby_E.wav,2,2,SIMILAR,A,,,1,0,0.00472,0,30,30,30,1,,,,,,,,,,,,,,,,,,,,,,,,,,,,,,,,,,,,,,,,,,,,,,,,,,,,,,,,,,,,,,,,,,,,,,,,,,,,,,,,,
,,,,,,,,,,,,,,5a9e9fc46219a30001f54994,63,2021-03-25_06h10.17.115,CombinedMST_OA,2020.2.10,MacIntel,60,,,,,,,,,,,,,,,,,SoundMST/Faucet_C.wav,2,2,SIMILAR,A,,,1,0,0.120875,0,31,31,31,1,,,,,,,,,,,,,,,,,,,,,,,,,,,,,,,,,,,,,,,,,,,,,,,,,,,,,,,,,,,,,,,,,,,,,,,,,,,,,,,,,
,,,,,,,,,,,,,,5a9e9fc46219a30001f54994,63,2021-03-25_06h10.17.115,CombinedMST_OA,2020.2.10,MacIntel,60,,,,,,,,,,,,,,,,,SoundMST/Duck_A.wav,2,3,NEW,A,,,2,1,0.4393,0,32,32,32,1,,,,,,,,,,,,,,,,,,,,,,,,,,,,,,,,,,,,,,,,,,,,,,,,,,,,,,,,,,,,,,,,,,,,,,,,,,,,,,,,,
,,,,,,,,,,,,,,5a9e9fc46219a30001f54994,63,2021-03-25_06h10.17.115,CombinedMST_OA,2020.2.10,MacIntel,60,,,,,,,,,,,,,,,,,SoundMST/Laugh_A.wav,2,3,NEW,A,,,2,1,0.33628,0,33,33,33,1,,,,,,,,,,,,,,,,,,,,,,,,,,,,,,,,,,,,,,,,,,,,,,,,,,,,,,,,,,,,,,,,,,,,,,,,,,,,,,,,,
,,,,,,,,,,,,,,5a9e9fc46219a30001f54994,63,2021-03-25_06h10.17.115,CombinedMST_OA,2020.2.10,MacIntel,60,,,,,,,,,,,,,,,,,SoundMST/Wind_B.wav,1,1,OLD,A,,,1,1,0.08601,0,34,34,34,1,,,,,,,,,,,,,,,,,,,,,,,,,,,,,,,,,,,,,,,,,,,,,,,,,,,,,,,,,,,,,,,,,,,,,,,,,,,,,,,,,
,,,,,,,,,,,,,,5a9e9fc46219a30001f54994,63,2021-03-25_06h10.17.115,CombinedMST_OA,2020.2.10,MacIntel,60,,,,,,,,,,,,,,,,,SoundMST/Chicken_A.wav,2,3,NEW,A,,,2,1,0.701995,0,35,35,35,1,,,,,,,,,,,,,,,,,,,,,,,,,,,,,,,,,,,,,,,,,,,,,,,,,,,,,,,,,,,,,,,,,,,,,,,,,,,,,,,,,
,,,,,,,,,,,,,,5a9e9fc46219a30001f54994,63,2021-03-25_06h10.17.115,CombinedMST_OA,2020.2.10,MacIntel,60,,,,,,,,,,,,,,,,,SoundMST/Guitar_B.wav,2,3,NEW,A,,,2,1,0.018595,0,36,36,36,1,,,,,,,,,,,,,,,,,,,,,,,,,,,,,,,,,,,,,,,,,,,,,,,,,,,,,,,,,,,,,,,,,,,,,,,,,,,,,,,,,
,,,,,,,,,,,,,,5a9e9fc46219a30001f54994,63,2021-03-25_06h10.17.115,CombinedMST_OA,2020.2.10,MacIntel,60,,,,,,,,,,,,,,,,,SoundMST/Cello.wav,2,3,NEW,A,,,2,1,0.435745,0,37,37,37,1,,,,,,,,,,,,,,,,,,,,,,,,,,,,,,,,,,,,,,,,,,,,,,,,,,,,,,,,,,,,,,,,,,,,,,,,,,,,,,,,,
,,,,,,,,,,,,,,5a9e9fc46219a30001f54994,63,2021-03-25_06h10.17.115,CombinedMST_OA,2020.2.10,MacIntel,60,,,,,,,,,,,,,,,,,SoundMST/Heartbeat.wav,1,1,OLD,A,,,1,1,0.47365,0,38,38,38,1,,,,,,,,,,,,,,,,,,,,,,,,,,,,,,,,,,,,,,,,,,,,,,,,,,,,,,,,,,,,,,,,,,,,,,,,,,,,,,,,,
,,,,,,,,,,,,,,5a9e9fc46219a30001f54994,63,2021-03-25_06h10.17.115,CombinedMST_OA,2020.2.10,MacIntel,60,,,,,,,,,,,,,,,,,SoundMST/Airplane_B.wav,2,3,NEW,A,,,2,1,0.037535,0,39,39,39,1,,,,,,,,,,,,,,,,,,,,,,,,,,,,,,,,,,,,,,,,,,,,,,,,,,,,,,,,,,,,,,,,,,,,,,,,,,,,,,,,,
,,,,,,,,,,,,,,5a9e9fc46219a30001f54994,63,2021-03-25_06h10.17.115,CombinedMST_OA,2020.2.10,MacIntel,60,,,,,,,,,,,,,,,,,SoundMST/Cough_E.wav,2,2,SIMILAR,A,,,1,0,0.5683,0,40,40,40,1,,,,,,,,,,,,,,,,,,,,,,,,,,,,,,,,,,,,,,,,,,,,,,,,,,,,,,,,,,,,,,,,,,,,,,,,,,,,,,,,,
,,,,,,,,,,,,,,5a9e9fc46219a30001f54994,63,2021-03-25_06h10.17.115,CombinedMST_OA,2020.2.10,MacIntel,60,,,,,,,,,,,,,,,,,SoundMST/Trumpet_B.wav,2,3,NEW,A,,,2,1,1.040225,0,41,41,41,1,,,,,,,,,,,,,,,,,,,,,,,,,,,,,,,,,,,,,,,,,,,,,,,,,,,,,,,,,,,,,,,,,,,,,,,,,,,,,,,,,
,,,,,,,,,,,,,,5a9e9fc46219a30001f54994,63,2021-03-25_06h10.17.115,CombinedMST_OA,2020.2.10,MacIntel,60,,,,,,,,,,,,,,,,,SoundMST/IceDrop.wav,1,1,OLD,A,,,1,1,0.65471,0,42,42,42,1,,,,,,,,,,,,,,,,,,,,,,,,,,,,,,,,,,,,,,,,,,,,,,,,,,,,,,,,,,,,,,,,,,,,,,,,,,,,,,,,,
,,,,,,,,,,,,,,5a9e9fc46219a30001f54994,63,2021-03-25_06h10.17.115,CombinedMST_OA,2020.2.10,MacIntel,60,,,,,,,,,,,,,,,,,SoundMST/Sneeze_B.wav,2,3,NEW,A,,,2,1,1.408615,0,43,43,43,1,,,,,,,,,,,,,,,,,,,,,,,,,,,,,,,,,,,,,,,,,,,,,,,,,,,,,,,,,,,,,,,,,,,,,,,,,,,,,,,,,
,,,,,,,,,,,,,,5a9e9fc46219a30001f54994,63,2021-03-25_06h10.17.115,CombinedMST_OA,2020.2.10,MacIntel,60,,,,,,,,,,,,,,,,,SoundMST/Puff_A.wav,1,1,OLD,A,,,1,1,0.773545,0,44,44,44,1,,,,,,,,,,,,,,,,,,,,,,,,,,,,,,,,,,,,,,,,,,,,,,,,,,,,,,,,,,,,,,,,,,,,,,,,,,,,,,,,,
,,,,,,,,,,,,,,5a9e9fc46219a30001f54994,63,2021-03-25_06h10.17.115,CombinedMST_OA,2020.2.10,MacIntel,60,,,,,,,,,,,,,,,,,SoundMST/Bird_A.wav,2,2,SIMILAR,A,,,2,1,0.10572,0,45,45,45,1,,,,,,,,,,,,,,,,,,,,,,,,,,,,,,,,,,,,,,,,,,,,,,,,,,,,,,,,,,,,,,,,,,,,,,,,,,,,,,,,,
,,,,,,,,,,,,,,5a9e9fc46219a30001f54994,63,2021-03-25_06h10.17.115,CombinedMST_OA,2020.2.10,MacIntel,60,,,,,,,,,,,,,,,,,SoundMST/Snore_C.wav,2,3,NEW,A,,,2,1,0.16854,0,46,46,46,1,,,,,,,,,,,,,,,,,,,,,,,,,,,,,,,,,,,,,,,,,,,,,,,,,,,,,,,,,,,,,,,,,,,,,,,,,,,,,,,,,
,,,,,,,,,,,,,,5a9e9fc46219a30001f54994,63,2021-03-25_06h10.17.115,CombinedMST_OA,2020.2.10,MacIntel,60,,,,,,,,,,,,,,,,,SoundMST/Guitar_B.wav,1,1,OLD,A,,,1,1,0.185975,0,47,47,47,1,,,,,,,,,,,,,,,,,,,,,,,,,,,,,,,,,,,,,,,,,,,,,,,,,,,,,,,,,,,,,,,,,,,,,,,,,,,,,,,,,
,,,,,,,,,,,,,,5a9e9fc46219a30001f54994,63,2021-03-25_06h10.17.115,CombinedMST_OA,2020.2.10,MacIntel,60,,,,,,,,,,,,,,,,,SoundMST/Cat_A.wav,2,3,NEW,A,,,2,1,0.67156,0,48,48,48,1,,,,,,,,,,,,,,,,,,,,,,,,,,,,,,,,,,,,,,,,,,,,,,,,,,,,,,,,,,,,,,,,,,,,,,,,,,,,,,,,,
,,,,,,,,,,,,,,5a9e9fc46219a30001f54994,63,2021-03-25_06h10.17.115,CombinedMST_OA,2020.2.10,MacIntel,60,,,,,,,,,,,,,,,,,SoundMST/Whistle_B.wav,2,3,NEW,A,,,2,1,0.59053,0,49,49,49,1,,,,,,,,,,,,,,,,,,,,,,,,,,,,,,,,,,,,,,,,,,,,,,,,,,,,,,,,,,,,,,,,,,,,,,,,,,,,,,,,,
,,,,,,,,,,,,,,5a9e9fc46219a30001f54994,63,2021-03-25_06h10.17.115,CombinedMST_OA,2020.2.10,MacIntel,60,,,,,,,,,,,,,,,,,SoundMST/Duck_B.wav,2,2,SIMILAR,A,,,1,0,0.476215,0,50,50,50,1,,,,,,,,,,,,,,,,,,,,,,,,,,,,,,,,,,,,,,,,,,,,,,,,,,,,,,,,,,,,,,,,,,,,,,,,,,,,,,,,,
,,,,,,,,,,,,,,5a9e9fc46219a30001f54994,63,2021-03-25_06h10.17.115,CombinedMST_OA,2020.2.10,MacIntel,60,,,,,,,,,,,,,,,,,SoundMST/Laugh_D.wav,2,2,SIMILAR,A,,,1,0,0.054065,0,51,51,51,1,,,,,,,,,,,,,,,,,,,,,,,,,,,,,,,,,,,,,,,,,,,,,,,,,,,,,,,,,,,,,,,,,,,,,,,,,,,,,,,,,
,,,,,,,,,,,,,,5a9e9fc46219a30001f54994,63,2021-03-25_06h10.17.115,CombinedMST_OA,2020.2.10,MacIntel,60,,,,,,,,,,,,,,,,,SoundMST/Chicken_A.wav,1,1,OLD,A,,,1,1,0.27051,0,52,52,52,1,,,,,,,,,,,,,,,,,,,,,,,,,,,,,,,,,,,,,,,,,,,,,,,,,,,,,,,,,,,,,,,,,,,,,,,,,,,,,,,,,
,,,,,,,,,,,,,,5a9e9fc46219a30001f54994,63,2021-03-25_06h10.17.115,CombinedMST_OA,2020.2.10,MacIntel,60,,,,,,,,,,,,,,,,,SoundMST/Cello.wav,1,1,OLD,A,,,1,1,0.752535,0,53,53,53,1,,,,,,,,,,,,,,,,,,,,,,,,,,,,,,,,,,,,,,,,,,,,,,,,,,,,,,,,,,,,,,,,,,,,,,,,,,,,,,,,,
,,,,,,,,,,,,,,5a9e9fc46219a30001f54994,63,2021-03-25_06h10.17.115,CombinedMST_OA,2020.2.10,MacIntel,60,,,,,,,,,,,,,,,,,SoundMST/Slurp.wav,2,3,NEW,A,,,1,0,0.23555,0,54,54,54,1,,,,,,,,,,,,,,,,,,,,,,,,,,,,,,,,,,,,,,,,,,,,,,,,,,,,,,,,,,,,,,,,,,,,,,,,,,,,,,,,,
,,,,,,,,,,,,,,5a9e9fc46219a30001f54994,63,2021-03-25_06h10.17.115,CombinedMST_OA,2020.2.10,MacIntel,60,,,,,,,,,,,,,,,,,SoundMST/Chomp_A.wav,2,3,NEW,A,,,2,1,0.66978,0,55,55,55,1,,,,,,,,,,,,,,,,,,,,,,,,,,,,,,,,,,,,,,,,,,,,,,,,,,,,,,,,,,,,,,,,,,,,,,,,,,,,,,,,,
,,,,,,,,,,,,,,5a9e9fc46219a30001f54994,63,2021-03-25_06h10.17.115,CombinedMST_OA,2020.2.10,MacIntel,60,,,,,,,,,,,,,,,,,SoundMST/Airplane_B.wav,1,1,OLD,A,,,1,1,0.470515,0,56,56,56,1,,,,,,,,,,,,,,,,,,,,,,,,,,,,,,,,,,,,,,,,,,,,,,,,,,,,,,,,,,,,,,,,,,,,,,,,,,,,,,,,,
,,,,,,,,,,,,,,5a9e9fc46219a30001f54994,63,2021-03-25_06h10.17.115,CombinedMST_OA,2020.2.10,MacIntel,60,,,,,,,,,,,,,,,,,SoundMST/ManWhistle.wav,2,3,NEW,A,,,2,1,0.872175,0,57,57,57,1,,,,,,,,,,,,,,,,,,,,,,,,,,,,,,,,,,,,,,,,,,,,,,,,,,,,,,,,,,,,,,,,,,,,,,,,,,,,,,,,,
,,,,,,,,,,,,,,5a9e9fc46219a30001f54994,63,2021-03-25_06h10.17.115,CombinedMST_OA,2020.2.10,MacIntel,60,,,,,,,,,,,,,,,,,SoundMST/Trumpet_B.wav,1,1,OLD,A,,,1,1,0.44084,0,58,58,58,1,,,,,,,,,,,,,,,,,,,,,,,,,,,,,,,,,,,,,,,,,,,,,,,,,,,,,,,,,,,,,,,,,,,,,,,,,,,,,,,,,
,,,,,,,,,,,,,,5a9e9fc46219a30001f54994,63,2021-03-25_06h10.17.115,CombinedMST_OA,2020.2.10,MacIntel,60,,,,,,,,,,,,,,,,,SoundMST/Cup.wav,2,3,NEW,A,,,1,0,1.103,0,59,59,59,1,,,,,,,,,,,,,,,,,,,,,,,,,,,,,,,,,,,,,,,,,,,,,,,,,,,,,,,,,,,,,,,,,,,,,,,,,,,,,,,,,
,,,,,,,,,,,,,,5a9e9fc46219a30001f54994,63,2021-03-25_06h10.17.115,CombinedMST_OA,2020.2.10,MacIntel,60,,,,,,,,,,,,,,,,,SoundMST/Snore_E.wav,2,2,SIMILAR,A,,,2,1,0.743935,0,60,60,60,1,,,,,,,,,,,,,,,,,,,,,,,,,,,,,,,,,,,,,,,,,,,,,,,,,,,,,,,,,,,,,,,,,,,,,,,,,,,,,,,,,
,,,,,,,,,,,,,,5a9e9fc46219a30001f54994,63,2021-03-25_06h10.17.115,CombinedMST_OA,2020.2.10,MacIntel,60,,,,,,,,,,,,,,,,,SoundMST/Airhorn.wav,2,3,NEW,A,,,2,1,0.569035,0,61,61,61,1,,,,,,,,,,,,,,,,,,,,,,,,,,,,,,,,,,,,,,,,,,,,,,,,,,,,,,,,,,,,,,,,,,,,,,,,,,,,,,,,,
,,,,,,,,,,,,,,5a9e9fc46219a30001f54994,63,2021-03-25_06h10.17.115,CombinedMST_OA,2020.2.10,MacIntel,60,,,,,,,,,,,,,,,,,SoundMST/Whistle_C.wav,2,2,SIMILAR,A,,,1,0,0.6519,0,62,62,62,1,,,,,,,,,,,,,,,,,,,,,,,,,,,,,,,,,,,,,,,,,,,,,,,,,,,,,,,,,,,,,,,,,,,,,,,,,,,,,,,,,
,,,,,,,,,,,,,,5a9e9fc46219a30001f54994,63,2021-03-25_06h10.17.115,CombinedMST_OA,2020.2.10,MacIntel,60,,,,,,,,,,,,,,,,,SoundMST/Phone_D.wav,2,3,NEW,A,,,2,1,0.660315,0,63,63,63,1,,,,,,,,,,,,,,,,,,,,,,,,,,,,,,,,,,,,,,,,,,,,,,,,,,,,,,,,,,,,,,,,,,,,,,,,,,,,,,,,,
,,,,,,,,,,,,,,5a9e9fc46219a30001f54994,63,2021-03-25_06h10.17.115,CombinedMST_OA,2020.2.10,MacIntel,60,,,,,,,,,,,,,,,,,SoundMST/Sneeze_B.wav,1,1,OLD,A,,,1,1,0.90589,0,64,64,64,1,,,,,,,,,,,,,,,,,,,,,,,,,,,,,,,,,,,,,,,,,,,,,,,,,,,,,,,,,,,,,,,,,,,,,,,,,,,,,,,,,
,,,,,,,,,,,,,,5a9e9fc46219a30001f54994,63,2021-03-25_06h10.17.115,CombinedMST_OA,2020.2.10,MacIntel,60,,,,,,,,,,,,,,,,,SoundMST/Cat_A.wav,1,1,OLD,A,,,1,1,0.486035,0,65,65,65,1,,,,,,,,,,,,,,,,,,,,,,,,,,,,,,,,,,,,,,,,,,,,,,,,,,,,,,,,,,,,,,,,,,,,,,,,,,,,,,,,,
,,,,,,,,,,,,,,5a9e9fc46219a30001f54994,63,2021-03-25_06h10.17.115,CombinedMST_OA,2020.2.10,MacIntel,60,,,,,,,,,,,,,,,,,SoundMST/Bagpipe.wav,2,3,NEW,A,,,2,1,0.4769,0,66,66,66,1,,,,,,,,,,,,,,,,,,,,,,,,,,,,,,,,,,,,,,,,,,,,,,,,,,,,,,,,,,,,,,,,,,,,,,,,,,,,,,,,,
,,,,,,,,,,,,,,5a9e9fc46219a30001f54994,63,2021-03-25_06h10.17.115,CombinedMST_OA,2020.2.10,MacIntel,60,,,,,,,,,,,,,,,,,SoundMST/Slurp.wav,1,1,OLD,A,,,1,1,0.54254,0,67,67,67,1,,,,,,,,,,,,,,,,,,,,,,,,,,,,,,,,,,,,,,,,,,,,,,,,,,,,,,,,,,,,,,,,,,,,,,,,,,,,,,,,,
,,,,,,,,,,,,,,5a9e9fc46219a30001f54994,63,2021-03-25_06h10.17.115,CombinedMST_OA,2020.2.10,MacIntel,60,,,,,,,,,,,,,,,,,SoundMST/Bowlingpins.wav,2,3,NEW,A,,,1,0,0.52037,0,68,68,68,1,,,,,,,,,,,,,,,,,,,,,,,,,,,,,,,,,,,,,,,,,,,,,,,,,,,,,,,,,,,,,,,,,,,,,,,,,,,,,,,,,
,,,,,,,,,,,,,,5a9e9fc46219a30001f54994,63,2021-03-25_06h10.17.115,CombinedMST_OA,2020.2.10,MacIntel,60,,,,,,,,,,,,,,,,,SoundMST/Cow.wav,2,3,NEW,A,,,2,1,0.605105,0,69,69,69,1,,,,,,,,,,,,,,,,,,,,,,,,,,,,,,,,,,,,,,,,,,,,,,,,,,,,,,,,,,,,,,,,,,,,,,,,,,,,,,,,,
,,,,,,,,,,,,,,5a9e9fc46219a30001f54994,63,2021-03-25_06h10.17.115,CombinedMST_OA,2020.2.10,MacIntel,60,,,,,,,,,,,,,,,,,SoundMST/Siren_E.wav,2,3,NEW,A,,,2,1,0.01222,0,70,70,70,1,,,,,,,,,,,,,,,,,,,,,,,,,,,,,,,,,,,,,,,,,,,,,,,,,,,,,,,,,,,,,,,,,,,,,,,,,,,,,,,,,
,,,,,,,,,,,,,,5a9e9fc46219a30001f54994,63,2021-03-25_06h10.17.115,CombinedMST_OA,2020.2.10,MacIntel,60,,,,,,,,,,,,,,,,,SoundMST/ManWhistle.wav,1,1,OLD,A,,,1,1,0.502345,0,71,71,71,1,,,,,,,,,,,,,,,,,,,,,,,,,,,,,,,,,,,,,,,,,,,,,,,,,,,,,,,,,,,,,,,,,,,,,,,,,,,,,,,,,
,,,,,,,,,,,,,,5a9e9fc46219a30001f54994,63,2021-03-25_06h10.17.115,CombinedMST_OA,2020.2.10,MacIntel,60,,,,,,,,,,,,,,,,,SoundMST/Crow_B.wav,2,3,NEW,A,,,2,1,1.240755,0,72,72,72,1,,,,,,,,,,,,,,,,,,,,,,,,,,,,,,,,,,,,,,,,,,,,,,,,,,,,,,,,,,,,,,,,,,,,,,,,,,,,,,,,,
,,,,,,,,,,,,,,5a9e9fc46219a30001f54994,63,2021-03-25_06h10.17.115,CombinedMST_OA,2020.2.10,MacIntel,60,,,,,,,,,,,,,,,,,SoundMST/Chomp_C.wav,2,2,SIMILAR,A,,,2,1,0.720005,0,73,73,73,1,,,,,,,,,,,,,,,,,,,,,,,,,,,,,,,,,,,,,,,,,,,,,,,,,,,,,,,,,,,,,,,,,,,,,,,,,,,,,,,,,
,,,,,,,,,,,,,,5a9e9fc46219a30001f54994,63,2021-03-25_06h10.17.115,CombinedMST_OA,2020.2.10,MacIntel,60,,,,,,,,,,,,,,,,,SoundMST/Cup.wav,1,1,OLD,A,,,1,1,0.502525,0,74,74,74,1,,,,,,,,,,,,,,,,,,,,,,,,,,,,,,,,,,,,,,,,,,,,,,,,,,,,,,,,,,,,,,,,,,,,,,,,,,,,,,,,,
,,,,,,,,,,,,,,5a9e9fc46219a30001f54994,63,2021-03-25_06h10.17.115,CombinedMST_OA,2020.2.10,MacIntel,60,,,,,,,,,,,,,,,,,SoundMST/Bullfrog.wav,2,3,NEW,A,,,2,1,0.551305,0,75,75,75,1,,,,,,,,,,,,,,,,,,,,,,,,,,,,,,,,,,,,,,,,,,,,,,,,,,,,,,,,,,,,,,,,,,,,,,,,,,,,,,,,,
,,,,,,,,,,,,,,5a9e9fc46219a30001f54994,63,2021-03-25_06h10.17.115,CombinedMST_OA,2020.2.10,MacIntel,60,,,,,,,,,,,,,,,,,SoundMST/Phone_E.wav,2,2,SIMILAR,A,,,1,0,0.452495,0,76,76,76,1,,,,,,,,,,,,,,,,,,,,,,,,,,,,,,,,,,,,,,,,,,,,,,,,,,,,,,,,,,,,,,,,,,,,,,,,,,,,,,,,,
,,,,,,,,,,,,,,5a9e9fc46219a30001f54994,63,2021-03-25_06h10.17.115,CombinedMST_OA,2020.2.10,MacIntel,60,,,,,,,,,,,,,,,,,SoundMST/Bagpipe.wav,1,1,OLD,A,,,1,1,0.584415,0,77,77,77,1,,,,,,,,,,,,,,,,,,,,,,,,,,,,,,,,,,,,,,,,,,,,,,,,,,,,,,,,,,,,,,,,,,,,,,,,,,,,,,,,,
,,,,,,,,,,,,,,5a9e9fc46219a30001f54994,63,2021-03-25_06h10.17.115,CombinedMST_OA,2020.2.10,MacIntel,60,,,,,,,,,,,,,,,,,SoundMST/HairDryer_A.wav,2,3,NEW,A,,,2,1,0.508405,0,78,78,78,1,,,,,,,,,,,,,,,,,,,,,,,,,,,,,,,,,,,,,,,,,,,,,,,,,,,,,,,,,,,,,,,,,,,,,,,,,,,,,,,,,
,,,,,,,,,,,,,,5a9e9fc46219a30001f54994,63,2021-03-25_06h10.17.115,CombinedMST_OA,2020.2.10,MacIntel,60,,,,,,,,,,,,,,,,,SoundMST/Airhorn.wav,1,1,OLD,A,,,1,1,0.459625,0,79,79,79,1,,,,,,,,,,,,,,,,,,,,,,,,,,,,,,,,,,,,,,,,,,,,,,,,,,,,,,,,,,,,,,,,,,,,,,,,,,,,,,,,,
,,,,,,,,,,,,,,5a9e9fc46219a30001f54994,63,2021-03-25_06h10.17.115,CombinedMST_OA,2020.2.10,MacIntel,60,,,,,,,,,,,,,,,,,SoundMST/Hammer_A.wav,2,3,NEW,A,,,2,1,0.575715,0,80,80,80,1,,,,,,,,,,,,,,,,,,,,,,,,,,,,,,,,,,,,,,,,,,,,,,,,,,,,,,,,,,,,,,,,,,,,,,,,,,,,,,,,,
,,,,,,,,,,,,,,5a9e9fc46219a30001f54994,63,2021-03-25_06h10.17.115,CombinedMST_OA,2020.2.10,MacIntel,60,,,,,,,,,,,,,,,,,SoundMST/Cuckoo_A.wav,2,3,NEW,A,,,2,1,0.468605,0,81,81,81,1,,,,,,,,,,,,,,,,,,,,,,,,,,,,,,,,,,,,,,,,,,,,,,,,,,,,,,,,,,,,,,,,,,,,,,,,,,,,,,,,,
,,,,,,,,,,,,,,5a9e9fc46219a30001f54994,63,2021-03-25_06h10.17.115,CombinedMST_OA,2020.2.10,MacIntel,60,,,,,,,,,,,,,,,,,SoundMST/Cow.wav,1,1,OLD,A,,,1,1,0.535185,0,82,82,82,1,,,,,,,,,,,,,,,,,,,,,,,,,,,,,,,,,,,,,,,,,,,,,,,,,,,,,,,,,,,,,,,,,,,,,,,,,,,,,,,,,
,,,,,,,,,,,,,,5a9e9fc46219a30001f54994,63,2021-03-25_06h10.17.115,CombinedMST_OA,2020.2.10,MacIntel,60,,,,,,,,,,,,,,,,,SoundMST/Footsteps_C.wav,2,3,NEW,A,,,2,1,0.418505,0,83,83,83,1,,,,,,,,,,,,,,,,,,,,,,,,,,,,,,,,,,,,,,,,,,,,,,,,,,,,,,,,,,,,,,,,,,,,,,,,,,,,,,,,,
,,,,,,,,,,,,,,5a9e9fc46219a30001f54994,63,2021-03-25_06h10.17.115,CombinedMST_OA,2020.2.10,MacIntel,60,,,,,,,,,,,,,,,,,SoundMST/Dog_H.wav,2,3,NEW,A,,,2,1,0.471815,0,84,84,84,1,,,,,,,,,,,,,,,,,,,,,,,,,,,,,,,,,,,,,,,,,,,,,,,,,,,,,,,,,,,,,,,,,,,,,,,,,,,,,,,,,
,,,,,,,,,,,,,,5a9e9fc46219a30001f54994,63,2021-03-25_06h10.17.115,CombinedMST_OA,2020.2.10,MacIntel,60,,,,,,,,,,,,,,,,,SoundMST/Bowlingpins.wav,1,1,OLD,A,,,1,1,0.505895,0,85,85,85,1,,,,,,,,,,,,,,,,,,,,,,,,,,,,,,,,,,,,,,,,,,,,,,,,,,,,,,,,,,,,,,,,,,,,,,,,,,,,,,,,,
,,,,,,,,,,,,,,5a9e9fc46219a30001f54994,63,2021-03-25_06h10.17.115,CombinedMST_OA,2020.2.10,MacIntel,60,,,,,,,,,,,,,,,,,SoundMST/Piano_D.wav,2,3,NEW,A,,,2,1,0.81818,0,86,86,86,1,,,,,,,,,,,,,,,,,,,,,,,,,,,,,,,,,,,,,,,,,,,,,,,,,,,,,,,,,,,,,,,,,,,,,,,,,,,,,,,,,
,,,,,,,,,,,,,,5a9e9fc46219a30001f54994,63,2021-03-25_06h10.17.115,CombinedMST_OA,2020.2.10,MacIntel,60,,,,,,,,,,,,,,,,,SoundMST/Fireworks.wav,2,3,NEW,A,,,1,0,0.65385,0,87,87,87,1,,,,,,,,,,,,,,,,,,,,,,,,,,,,,,,,,,,,,,,,,,,,,,,,,,,,,,,,,,,,,,,,,,,,,,,,,,,,,,,,,
,,,,,,,,,,,,,,5a9e9fc46219a30001f54994,63,2021-03-25_06h10.17.115,CombinedMST_OA,2020.2.10,MacIntel,60,,,,,,,,,,,,,,,,,SoundMST/Bullfrog.wav,1,1,OLD,A,,,1,1,0.6541,0,88,88,88,1,,,,,,,,,,,,,,,,,,,,,,,,,,,,,,,,,,,,,,,,,,,,,,,,,,,,,,,,,,,,,,,,,,,,,,,,,,,,,,,,,
,,,,,,,,,,,,,,5a9e9fc46219a30001f54994,63,2021-03-25_06h10.17.115,CombinedMST_OA,2020.2.10,MacIntel,60,,,,,,,,,,,,,,,,,SoundMST/Siren_A.wav,2,2,SIMILAR,A,,,1,0,0.935445,0,89,89,89,1,,,,,,,,,,,,,,,,,,,,,,,,,,,,,,,,,,,,,,,,,,,,,,,,,,,,,,,,,,,,,,,,,,,,,,,,,,,,,,,,,
,,,,,,,,,,,,,,5a9e9fc46219a30001f54994,63,2021-03-25_06h10.17.115,CombinedMST_OA,2020.2.10,MacIntel,60,,,,,,,,,,,,,,,,,SoundMST/Crow_A.wav,2,2,SIMILAR,A,,,1,0,0.45166,0,90,90,90,1,,,,,,,,,,,,,,,,,,,,,,,,,,,,,,,,,,,,,,,,,,,,,,,,,,,,,,,,,,,,,,,,,,,,,,,,,,,,,,,,,
,,,,,,,,,,,,,,5a9e9fc46219a30001f54994,63,2021-03-25_06h10.17.115,CombinedMST_OA,2020.2.10,MacIntel,60,,,,,,,,,,,,,,,,,SoundMST/Goat_B.wav,2,3,NEW,A,,,2,1,0.542145,0,91,91,91,1,,,,,,,,,,,,,,,,,,,,,,,,,,,,,,,,,,,,,,,,,,,,,,,,,,,,,,,,,,,,,,,,,,,,,,,,,,,,,,,,,
,,,,,,,,,,,,,,5a9e9fc46219a30001f54994,63,2021-03-25_06h10.17.115,CombinedMST_OA,2020.2.10,MacIntel,60,,,,,,,,,,,,,,,,,SoundMST/HairDryer_A.wav,1,1,OLD,A,,,1,1,0.402465,0,92,92,92,1,,,,,,,,,,,,,,,,,,,,,,,,,,,,,,,,,,,,,,,,,,,,,,,,,,,,,,,,,,,,,,,,,,,,,,,,,,,,,,,,,
,,,,,,,,,,,,,,5a9e9fc46219a30001f54994,63,2021-03-25_06h10.17.115,CombinedMST_OA,2020.2.10,MacIntel,60,,,,,,,,,,,,,,,,,SoundMST/Cuckoo_A.wav,1,1,OLD,A,,,1,1,0.419885,0,93,93,93,1,,,,,,,,,,,,,,,,,,,,,,,,,,,,,,,,,,,,,,,,,,,,,,,,,,,,,,,,,,,,,,,,,,,,,,,,,,,,,,,,,
,,,,,,,,,,,,,,5a9e9fc46219a30001f54994,63,2021-03-25_06h10.17.115,CombinedMST_OA,2020.2.10,MacIntel,60,,,,,,,,,,,,,,,,,SoundMST/Coin_D.wav,2,3,NEW,A,,,2,1,0.5212,0,94,94,94,1,,,,,,,,,,,,,,,,,,,,,,,,,,,,,,,,,,,,,,,,,,,,,,,,,,,,,,,,,,,,,,,,,,,,,,,,,,,,,,,,,
,,,,,,,,,,,,,,5a9e9fc46219a30001f54994,63,2021-03-25_06h10.17.115,CombinedMST_OA,2020.2.10,MacIntel,60,,,,,,,,,,,,,,,,,SoundMST/Howl.wav,2,3,NEW,A,,,2,1,0.542755,0,95,95,95,1,,,,,,,,,,,,,,,,,,,,,,,,,,,,,,,,,,,,,,,,,,,,,,,,,,,,,,,,,,,,,,,,,,,,,,,,,,,,,,,,,
,,,,,,,,,,,,,,5a9e9fc46219a30001f54994,63,2021-03-25_06h10.17.115,CombinedMST_OA,2020.2.10,MacIntel,60,,,,,,,,,,,,,,,,,SoundMST/Hammer_A.wav,1,1,OLD,A,,,1,1,0.486915,0,96,96,96,1,,,,,,,,,,,,,,,,,,,,,,,,,,,,,,,,,,,,,,,,,,,,,,,,,,,,,,,,,,,,,,,,,,,,,,,,,,,,,,,,,
,,,,,,,,,,,,,,5a9e9fc46219a30001f54994,63,2021-03-25_06h10.17.115,CombinedMST_OA,2020.2.10,MacIntel,60,,,,,,,,,,,,,,,,,SoundMST/Helicopter_A.wav,2,3,NEW,A,,,2,1,0.471955,0,97,97,97,1,,,,,,,,,,,,,,,,,,,,,,,,,,,,,,,,,,,,,,,,,,,,,,,,,,,,,,,,,,,,,,,,,,,,,,,,,,,,,,,,,
,,,,,,,,,,,,,,5a9e9fc46219a30001f54994,63,2021-03-25_06h10.17.115,CombinedMST_OA,2020.2.10,MacIntel,60,,,,,,,,,,,,,,,,,SoundMST/Bubbles_A.wav,2,3,NEW,A,,,2,1,0.351655,0,98,98,98,1,,,,,,,,,,,,,,,,,,,,,,,,,,,,,,,,,,,,,,,,,,,,,,,,,,,,,,,,,,,,,,,,,,,,,,,,,,,,,,,,,
,,,,,,,,,,,,,,5a9e9fc46219a30001f54994,63,2021-03-25_06h10.17.115,CombinedMST_OA,2020.2.10,MacIntel,60,,,,,,,,,,,,,,,,,SoundMST/Footsteps_F.wav,2,2,SIMILAR,A,,,2,1,0.45174,0,99,99,99,1,,,,,,,,,,,,,,,,,,,,,,,,,,,,,,,,,,,,,,,,,,,,,,,,,,,,,,,,,,,,,,,,,,,,,,,,,,,,,,,,,
,,,,,,,,,,,,,,5a9e9fc46219a30001f54994,63,2021-03-25_06h10.17.115,CombinedMST_OA,2020.2.10,MacIntel,60,,,,,,,,,,,,,,,,,SoundMST/Growl_G.wav,2,3,NEW,A,,,2,1,0.455775,0,100,100,100,1,,,,,,,,,,,,,,,,,,,,,,,,,,,,,,,,,,,,,,,,,,,,,,,,,,,,,,,,,,,,,,,,,,,,,,,,,,,,,,,,,
,,,,,,,,,,,,,,5a9e9fc46219a30001f54994,63,2021-03-25_06h10.17.115,CombinedMST_OA,2020.2.10,MacIntel,60,,,,,,,,,,,,,,,,,SoundMST/Horse.wav,2,3,NEW,A,,,2,1,0.442175,0,101,101,101,1,,,,,,,,,,,,,,,,,,,,,,,,,,,,,,,,,,,,,,,,,,,,,,,,,,,,,,,,,,,,,,,,,,,,,,,,,,,,,,,,,
,,,,,,,,,,,,,,5a9e9fc46219a30001f54994,63,2021-03-25_06h10.17.115,CombinedMST_OA,2020.2.10,MacIntel,60,,,,,,,,,,,,,,,,,SoundMST/Piano_D.wav,1,1,OLD,A,,,1,1,0.55467,0,102,102,102,1,,,,,,,,,,,,,,,,,,,,,,,,,,,,,,,,,,,,,,,,,,,,,,,,,,,,,,,,,,,,,,,,,,,,,,,,,,,,,,,,,
,,,,,,,,,,,,,,5a9e9fc46219a30001f54994,63,2021-03-25_06h10.17.115,CombinedMST_OA,2020.2.10,MacIntel,60,,,,,,,,,,,,,,,,,SoundMST/Dog_F.wav,2,2,SIMILAR,A,,,1,0,0.48603,0,103,103,103,1,,,,,,,,,,,,,,,,,,,,,,,,,,,,,,,,,,,,,,,,,,,,,,,,,,,,,,,,,,,,,,,,,,,,,,,,,,,,,,,,,
,,,,,,,,,,,,,,5a9e9fc46219a30001f54994,63,2021-03-25_06h10.17.115,CombinedMST_OA,2020.2.10,MacIntel,60,,,,,,,,,,,,,,,,,SoundMST/Fireworks.wav,1,1,OLD,A,,,1,1,0.5179,0,104,104,104,1,,,,,,,,,,,,,,,,,,,,,,,,,,,,,,,,,,,,,,,,,,,,,,,,,,,,,,,,,,,,,,,,,,,,,,,,,,,,,,,,,
,,,,,,,,,,,,,,5a9e9fc46219a30001f54994,63,2021-03-25_06h10.17.115,CombinedMST_OA,2020.2.10,MacIntel,60,,,,,,,,,,,,,,,,,SoundMST/Printer.wav,2,3,NEW,A,,,2,1,0.48611,0,105,105,105,1,,,,,,,,,,,,,,,,,,,,,,,,,,,,,,,,,,,,,,,,,,,,,,,,,,,,,,,,,,,,,,,,,,,,,,,,,,,,,,,,,
,,,,,,,,,,,,,,5a9e9fc46219a30001f54994,63,2021-03-25_06h10.17.115,CombinedMST_OA,2020.2.10,MacIntel,60,,,,,,,,,,,,,,,,,SoundMST/Camera.wav,2,3,NEW,A,,,2,1,0.584865,0,106,106,106,1,,,,,,,,,,,,,,,,,,,,,,,,,,,,,,,,,,,,,,,,,,,,,,,,,,,,,,,,,,,,,,,,,,,,,,,,,,,,,,,,,
,,,,,,,,,,,,,,5a9e9fc46219a30001f54994,63,2021-03-25_06h10.17.115,CombinedMST_OA,2020.2.10,MacIntel,60,,,,,,,,,,,,,,,,,SoundMST/Clap_B.wav,2,3,NEW,A,,,2,1,0.302355,0,107,107,107,1,,,,,,,,,,,,,,,,,,,,,,,,,,,,,,,,,,,,,,,,,,,,,,,,,,,,,,,,,,,,,,,,,,,,,,,,,,,,,,,,,
,,,,,,,,,,,,,,5a9e9fc46219a30001f54994,63,2021-03-25_06h10.17.115,CombinedMST_OA,2020.2.10,MacIntel,60,,,,,,,,,,,,,,,,,SoundMST/PaperRip.wav,2,3,NEW,A,,,1,0,0.86914,0,108,108,108,1,,,,,,,,,,,,,,,,,,,,,,,,,,,,,,,,,,,,,,,,,,,,,,,,,,,,,,,,,,,,,,,,,,,,,,,,,,,,,,,,,
,,,,,,,,,,,,,,5a9e9fc46219a30001f54994,63,2021-03-25_06h10.17.115,CombinedMST_OA,2020.2.10,MacIntel,60,,,,,,,,,,,,,,,,,SoundMST/Coin_E.wav,2,2,SIMILAR,A,,,1,0,0.67142,0,109,109,109,1,,,,,,,,,,,,,,,,,,,,,,,,,,,,,,,,,,,,,,,,,,,,,,,,,,,,,,,,,,,,,,,,,,,,,,,,,,,,,,,,,
,,,,,,,,,,,,,,5a9e9fc46219a30001f54994,63,2021-03-25_06h10.17.115,CombinedMST_OA,2020.2.10,MacIntel,60,,,,,,,,,,,,,,,,,SoundMST/Droplet_B.wav,2,3,NEW,A,,,2,1,0.87743,0,110,110,110,1,,,,,,,,,,,,,,,,,,,,,,,,,,,,,,,,,,,,,,,,,,,,,,,,,,,,,,,,,,,,,,,,,,,,,,,,,,,,,,,,,
,,,,,,,,,,,,,,5a9e9fc46219a30001f54994,63,2021-03-25_06h10.17.115,CombinedMST_OA,2020.2.10,MacIntel,60,,,,,,,,,,,,,,,,,SoundMST/Steam.wav,2,3,NEW,A,,,1,0,0.419885,0,111,111,111,1,,,,,,,,,,,,,,,,,,,,,,,,,,,,,,,,,,,,,,,,,,,,,,,,,,,,,,,,,,,,,,,,,,,,,,,,,,,,,,,,,
,,,,,,,,,,,,,,5a9e9fc46219a30001f54994,63,2021-03-25_06h10.17.115,CombinedMST_OA,2020.2.10,MacIntel,60,,,,,,,,,,,,,,,,,SoundMST/Helicopter_A.wav,1,1,OLD,A,,,1,1,0.57095,0,112,112,112,1,,,,,,,,,,,,,,,,,,,,,,,,,,,,,,,,,,,,,,,,,,,,,,,,,,,,,,,,,,,,,,,,,,,,,,,,,,,,,,,,,
,,,,,,,,,,,,,,5a9e9fc46219a30001f54994,63,2021-03-25_06h10.17.115,CombinedMST_OA,2020.2.10,MacIntel,60,,,,,,,,,,,,,,,,,SoundMST/CarStart_E.wav,2,3,NEW,A,,,2,1,0.49737,0,113,113,113,1,,,,,,,,,,,,,,,,,,,,,,,,,,,,,,,,,,,,,,,,,,,,,,,,,,,,,,,,,,,,,,,,,,,,,,,,,,,,,,,,,
,,,,,,,,,,,,,,5a9e9fc46219a30001f54994,63,2021-03-25_06h10.17.115,CombinedMST_OA,2020.2.10,MacIntel,60,,,,,,,,,,,,,,,,,SoundMST/Howl.wav,1,1,OLD,A,,,1,1,0.46946,0,114,114,114,1,,,,,,,,,,,,,,,,,,,,,,,,,,,,,,,,,,,,,,,,,,,,,,,,,,,,,,,,,,,,,,,,,,,,,,,,,,,,,,,,,
,,,,,,,,,,,,,,5a9e9fc46219a30001f54994,63,2021-03-25_06h10.17.115,CombinedMST_OA,2020.2.10,MacIntel,60,,,,,,,,,,,,,,,,,SoundMST/Growl_H.wav,2,2,SIMILAR,A,,,1,0,0.389735,0,115,115,115,1,,,,,,,,,,,,,,,,,,,,,,,,,,,,,,,,,,,,,,,,,,,,,,,,,,,,,,,,,,,,,,,,,,,,,,,,,,,,,,,,,
,,,,,,,,,,,,,,5a9e9fc46219a30001f54994,63,2021-03-25_06h10.17.115,CombinedMST_OA,2020.2.10,MacIntel,60,,,,,,,,,,,,,,,,,SoundMST/Goat_C.wav,2,2,SIMILAR,A,,,1,0,0.40218,0,116,116,116,1,,,,,,,,,,,,,,,,,,,,,,,,,,,,,,,,,,,,,,,,,,,,,,,,,,,,,,,,,,,,,,,,,,,,,,,,,,,,,,,,,
,,,,,,,,,,,,,,5a9e9fc46219a30001f54994,63,2021-03-25_06h10.17.115,CombinedMST_OA,2020.2.10,MacIntel,60,,,,,,,,,,,,,,,,,SoundMST/Donkey.wav,2,3,NEW,A,,,2,1,0.488015,0,117,117,117,1,,,,,,,,,,,,,,,,,,,,,,,,,,,,,,,,,,,,,,,,,,,,,,,,,,,,,,,,,,,,,,,,,,,,,,,,,,,,,,,,,
,,,,,,,,,,,,,,5a9e9fc46219a30001f54994,63,2021-03-25_06h10.17.115,CombinedMST_OA,2020.2.10,MacIntel,60,,,,,,,,,,,,,,,,,SoundMST/PaperRip.wav,1,1,OLD,A,,,1,1,0.55708,0,118,118,118,1,,,,,,,,,,,,,,,,,,,,,,,,,,,,,,,,,,,,,,,,,,,,,,,,,,,,,,,,,,,,,,,,,,,,,,,,,,,,,,,,,
,,,,,,,,,,,,,,5a9e9fc46219a30001f54994,63,2021-03-25_06h10.17.115,CombinedMST_OA,2020.2.10,MacIntel,60,,,,,,,,,,,,,,,,,SoundMST/Bubbles_B.wav,2,2,SIMILAR,A,,,1,0,0.102565,0,119,119,119,1,,,,,,,,,,,,,,,,,,,,,,,,,,,,,,,,,,,,,,,,,,,,,,,,,,,,,,,,,,,,,,,,,,,,,,,,,,,,,,,,,
,,,,,,,,,,,,,,5a9e9fc46219a30001f54994,63,2021-03-25_06h10.17.115,CombinedMST_OA,2020.2.10,MacIntel,60,,,,,,,,,,,,,,,,,SoundMST/Horse.wav,1,1,OLD,A,,,1,1,0.338435,0,120,120,120,1,,,,,,,,,,,,,,,,,,,,,,,,,,,,,,,,,,,,,,,,,,,,,,,,,,,,,,,,,,,,,,,,,,,,,,,,,,,,,,,,,
,,,,,,,,,,,,,,5a9e9fc46219a30001f54994,63,2021-03-25_06h10.17.115,CombinedMST_OA,2020.2.10,MacIntel,60,,,,,,,,,,,,,,,,,SoundMST/Printer.wav,1,1,OLD,A,,,1,1,0.502165,0,121,121,121,1,,,,,,,,,,,,,,,,,,,,,,,,,,,,,,,,,,,,,,,,,,,,,,,,,,,,,,,,,,,,,,,,,,,,,,,,,,,,,,,,,
,,,,,,,,,,,,,,5a9e9fc46219a30001f54994,63,2021-03-25_06h10.17.115,CombinedMST_OA,2020.2.10,MacIntel,60,,,,,,,,,,,,,,,,,SoundMST/Camera.wav,1,1,OLD,A,,,1,1,0.671155,0,122,122,122,1,,,,,,,,,,,,,,,,,,,,,,,,,,,,,,,,,,,,,,,,,,,,,,,,,,,,,,,,,,,,,,,,,,,,,,,,,,,,,,,,,
,,,,,,,,,,,,,,5a9e9fc46219a30001f54994,63,2021-03-25_06h10.17.115,CombinedMST_OA,2020.2.10,MacIntel,60,,,,,,,,,,,,,,,,,SoundMST/Droplet_B.wav,1,1,OLD,A,,,1,1,0.552455,0,123,123,123,1,,,,,,,,,,,,,,,,,,,,,,,,,,,,,,,,,,,,,,,,,,,,,,,,,,,,,,,,,,,,,,,,,,,,,,,,,,,,,,,,,
,,,,,,,,,,,,,,5a9e9fc46219a30001f54994,63,2021-03-25_06h10.17.115,CombinedMST_OA,2020.2.10,MacIntel,60,,,,,,,,,,,,,,,,,SoundMST/Steam.wav,1,1,OLD,A,,,1,1,0.486555,0,124,124,124,1,,,,,,,,,,,,,,,,,,,,,,,,,,,,,,,,,,,,,,,,,,,,,,,,,,,,,,,,,,,,,,,,,,,,,,,,,,,,,,,,,
,,,,,,,,,,,,,,5a9e9fc46219a30001f54994,63,2021-03-25_06h10.17.115,CombinedMST_OA,2020.2.10,MacIntel,60,,,,,,,,,,,,,,,,,SoundMST/CarStart_D.wav,2,2,SIMILAR,A,,,2,1,0.2255,0,125,125,125,1,,,,,,,,,,,,,,,,,,,,,,,,,,,,,,,,,,,,,,,,,,,,,,,,,,,,,,,,,,,,,,,,,,,,,,,,,,,,,,,,,
,,,,,,,,,,,,,,5a9e9fc46219a30001f54994,63,2021-03-25_06h10.17.115,CombinedMST_OA,2020.2.10,MacIntel,60,,,,,,,,,,,,,,,,,SoundMST/Donkey.wav,1,1,OLD,A,,,1,1,0.452465,0,126,126,126,1,,,,,,,,,,,,,,,,,,,,,,,,,,,,,,,,,,,,,,,,,,,,,,,,,,,,,,,,,,,,,,,,,,,,,,,,,,,,,,,,,
,,,,,,,,,,,,,,5a9e9fc46219a30001f54994,63,2021-03-25_06h10.17.115,CombinedMST_OA,2020.2.10,MacIntel,60,,,,,,,,,,,,,,,,,SoundMST/Clap_C.wav,2,2,SIMILAR,A,,,1,0,0.423485,0,127,127,127,1,,,,,,,,,,,,,,,,,,,,,,,,,,,,,,,,,,,,,,,,,,,,,,,,,,,,,,,,,,,,,,,,,,,,,,,,,,,,,,,,,
,,,,,,,,,,,,,,5a9e9fc46219a30001f54994,63,2021-03-25_06h10.17.115,CombinedMST_OA,2020.2.10,MacIntel,60,,,,,,,,,,,,,,,,,,,,,,,,,,,,,,,,return,12.254015,chinese,0,0,0,0,1,,,,,,,,,,,,,,,,,,,,,,,,,,,,,,,,,,,,,,,,,,,,,,,,,,,,,,,,,,,,,,,,,,,,,,,,,
,,,,,,,,,,,,,,5a9e9fc46219a30001f54994,63,2021-03-25_06h10.17.115,CombinedMST_OA,2020.2.10,MacIntel,60,,,,,,,,,,,,,,,,,,,,,,,,,,,,,,,,,,,,,,,,0,0,0,1,1,0,1,,,,,,,,,,,,,,,,,,,,,,,,,,,,,,,,,,,,,,,,,,,,,,,,,,,,,,,,,,,,,,,,,,
,,,,,,,,,,,,,2,5a9e9fc46219a30001f54994,63,2021-03-25_06h10.17.115,CombinedMST_OA,2020.2.10,MacIntel,60,space,33.063845,,,,,space,2.87045,,,,,,,,,,,,,,,,,,,,,,,,,,,,,,,,,,,,,,,space,13.46709,space,10.561625,2,1,2.13173,0,0,0,0,1,Training/FO_YI_LAY.wav,NEW,,,,,,,,,,,,,,,,,,,,,,,,,,,,,,,,,,,,,,,,,,,,,,,,,,,,
,,,,,,,,,,,,,1,5a9e9fc46219a30001f54994,63,2021-03-25_06h10.17.115,CombinedMST_OA,2020.2.10,MacIntel,60,,,,,,,,,,,,,,,,,,,,,,,,,,,,,,,,,,,,,,,,,,,,,,,,,,,2,0,1.06767,0,1,1,1,1,Training/FO_YI_LAY.wav,OLD,,,,,,,,,,,,,,,,,,,,,,,,,,,,,,,,,,,,,,,,,,,,,,,,,,,,
,,,,,,,,,,,,,2,5a9e9fc46219a30001f54994,63,2021-03-25_06h10.17.115,CombinedMST_OA,2020.2.10,MacIntel,60,,,,,,,,,,,,,,,,,,,,,,,,,,,,,,,,,,,,,,,,,,,,,,,,,,,2,1,1.56776,0,2,2,2,1,Training/YO_BU_JAY.wav,NEW,,,,,,,,,,,,,,,,,,,,,,,,,,,,,,,,,,,,,,,,,,,,,,,,,,,,
,,,,,,,,,,,,,2,5a9e9fc46219a30001f54994,63,2021-03-25_06h10.17.115,CombinedMST_OA,2020.2.10,MacIntel,60,,,,,,,,,,,,,,,,,,,,,,,,,,,,,,,,,,,,,,,,,,,,,,,,,,,2,1,0.870325,0,3,3,3,1,Training/JAY_YO_BU.wav,SIMILAR,,,,,,,,,,,,,,,,,,,,,,,,,,,,,,,,,,,,,,,,,,,,,,,,,,,,
,,,,,,,,,,,,,1,5a9e9fc46219a30001f54994,63,2021-03-25_06h10.17.115,CombinedMST_OA,2020.2.10,MacIntel,60,,,,,,,,,,,,,,,,,,,,,,,,,,,,,,,,,,,,,,,,,,,,,,,,,,,1,1,0.587675,0,4,4,4,1,Training/FO_YI_LAY.wav,OLD,,,,,,,,,,,,,,,,,,,,,,,,,,,,,,,,,,,,,,,,,,,,,,,,,,,,
,,,,,,,,,,,,TestWords/SI_VAI_CHU.wav,,5a9e9fc46219a30001f54994,63,2021-03-25_06h10.17.115,CombinedMST_OA,2020.2.10,MacIntel,60,,,,,,,,,,,,,,,,,,,,,,,,,,,,,,,,,,,,,,,,,,,,,,,,,,,,,,,,,,,,,space,19.27088,2,1,0.98631,0,0,0,0,1,2,NEW,NEW,F,,,,,,,,,,,,,,,,,,,,,,,,,,,,,,,,,,,,,,
,,,,,,,,,,,,TestWords/HO_NAY_VA.wav,,5a9e9fc46219a30001f54994,63,2021-03-25_06h10.17.115,CombinedMST_OA,2020.2.10,MacIntel,60,,,,,,,,,,,,,,,,,,,,,,,,,,,,,,,,,,,,,,,,,,,,,,,,,,,,,,,,,,,,,,,2,1,0.439795,0,1,1,1,1,2,NEW,NEW,F,,,,,,,,,,,,,,,,,,,,,,,,,,,,,,,,,,,,,,
,,,,,,,,,,,,TestWords/KAI_LAY_TA.wav,,5a9e9fc46219a30001f54994,63,2021-03-25_06h10.17.115,CombinedMST_OA,2020.2.10,MacIntel,60,,,,,,,,,,,,,,,,,,,,,,,,,,,,,,,,,,,,,,,,,,,,,,,,,,,,,,,,,,,,,,,2,1,0.771305,0,2,2,2,1,2,NEW,NEW,F,,,,,,,,,,,,,,,,,,,,,,,,,,,,,,,,,,,,,,
,,,,,,,,,,,,TestWords/PAI_LU_WA.wav,,5a9e9fc46219a30001f54994,63,2021-03-25_06h10.17.115,CombinedMST_OA,2020.2.10,MacIntel,60,,,,,,,,,,,,,,,,,,,,,,,,,,,,,,,,,,,,,,,,,,,,,,,,,,,,,,,,,,,,,,,2,1,0.669635,0,3,3,3,1,2,NEW,NEW,F,,,,,,,,,,,,,,,,,,,,,,,,,,,,,,,,,,,,,,
,,,,,,,,,,,,TestWords/WAI_VU_NA.wav,,5a9e9fc46219a30001f54994,63,2021-03-25_06h10.17.115,CombinedMST_OA,2020.2.10,MacIntel,60,,,,,,,,,,,,,,,,,,,,,,,,,,,,,,,,,,,,,,,,,,,,,,,,,,,,,,,,,,,,,,,2,1,0.8729,0,4,4,4,1,2,NEW,NEW,F,,,,,,,,,,,,,,,,,,,,,,,,,,,,,,,,,,,,,,
,,,,,,,,,,,,TestWords/VAI_HO_LA.wav,,5a9e9fc46219a30001f54994,63,2021-03-25_06h10.17.115,CombinedMST_OA,2020.2.10,MacIntel,60,,,,,,,,,,,,,,,,,,,,,,,,,,,,,,,,,,,,,,,,,,,,,,,,,,,,,,,,,,,,,,,2,1,0.48542,0,5,5,5,1,2,NEW,NEW,F,,,,,,,,,,,,,,,,,,,,,,,,,,,,,,,,,,,,,,
,,,,,,,,,,,,TestWords/GU_CHAI_PI.wav,,5a9e9fc46219a30001f54994,63,2021-03-25_06h10.17.115,CombinedMST_OA,2020.2.10,MacIntel,60,,,,,,,,,,,,,,,,,,,,,,,,,,,,,,,,,,,,,,,,,,,,,,,,,,,,,,,,,,,,,,,2,1,0.574125,0,6,6,6,1,2,NEW,NEW,F,,,,,,,,,,,,,,,,,,,,,,,,,,,,,,,,,,,,,,
,,,,,,,,,,,,TestWords/KO_SU_FAI.wav,,5a9e9fc46219a30001f54994,63,2021-03-25_06h10.17.115,CombinedMST_OA,2020.2.10,MacIntel,60,,,,,,,,,,,,,,,,,,,,,,,,,,,,,,,,,,,,,,,,,,,,,,,,,,,,,,,,,,,,,,,2,1,0.90215,0,7,7,7,1,2,NEW,NEW,F,,,,,,,,,,,,,,,,,,,,,,,,,,,,,,,,,,,,,,
,,,,,,,,,,,,TestWords/KAI_LAY_TA.wav,,5a9e9fc46219a30001f54994,63,2021-03-25_06h10.17.115,CombinedMST_OA,2020.2.10,MacIntel,60,,,,,,,,,,,,,,,,,,,,,,,,,,,,,,,,,,,,,,,,,,,,,,,,,,,,,,,,,,,,,,,2,0,0.61915,0,8,8,8,1,1,OLD,OLD,F,,,,,,,,,,,,,,,,,,,,,,,,,,,,,,,,,,,,,,
,,,,,,,,,,,,TestWords/BA_KAY_LI.wav,,5a9e9fc46219a30001f54994,63,2021-03-25_06h10.17.115,CombinedMST_OA,2020.2.10,MacIntel,60,,,,,,,,,,,,,,,,,,,,,,,,,,,,,,,,,,,,,,,,,,,,,,,,,,,,,,,,,,,,,,,2,1,1.036395,0,9,9,9,1,2,NEW,NEW,F,,,,,,,,,,,,,,,,,,,,,,,,,,,,,,,,,,,,,,
,,,,,,,,,,,,TestWords/DAI_RU_CHI.wav,,5a9e9fc46219a30001f54994,63,2021-03-25_06h10.17.115,CombinedMST_OA,2020.2.10,MacIntel,60,,,,,,,,,,,,,,,,,,,,,,,,,,,,,,,,,,,,,,,,,,,,,,,,,,,,,,,,,,,,,,,2,1,0.359525,0,10,10,10,1,2,NEW,NEW,F,,,,,,,,,,,,,,,,,,,,,,,,,,,,,,,,,,,,,,
,,,,,,,,,,,,TestWords/WAI_NA_VU.wav,,5a9e9fc46219a30001f54994,63,2021-03-25_06h10.17.115,CombinedMST_OA,2020.2.10,MacIntel,60,,,,,,,,,,,,,,,,,,,,,,,,,,,,,,,,,,,,,,,,,,,,,,,,,,,,,,,,,,,,,,,1,0,0.65261,0,11,11,11,1,2,NEW,SIMILAR,F,,,,,,,,,,,,,,,,,,,,,,,,,,,,,,,,,,,,,,
,,,,,,,,,,,,TestWords/DA_CHU_VAI.wav,,5a9e9fc46219a30001f54994,63,2021-03-25_06h10.17.115,CombinedMST_OA,2020.2.10,MacIntel,60,,,,,,,,,,,,,,,,,,,,,,,,,,,,,,,,,,,,,,,,,,,,,,,,,,,,,,,,,,,,,,,1,0,0.703035,0,12,12,12,1,2,NEW,NEW,F,,,,,,,,,,,,,,,,,,,,,,,,,,,,,,,,,,,,,,
,,,,,,,,,,,,TestWords/KAI_LAY_TA.wav,,5a9e9fc46219a30001f54994,63,2021-03-25_06h10.17.115,CombinedMST_OA,2020.2.10,MacIntel,60,,,,,,,,,,,,,,,,,,,,,,,,,,,,,,,,,,,,,,,,,,,,,,,,,,,,,,,,,,,,,,,1,1,0.5195,0,13,13,13,1,1,OLD,OLD,F,,,,,,,,,,,,,,,,,,,,,,,,,,,,,,,,,,,,,,
,,,,,,,,,,,,TestWords/KO_SU_FAI.wav,,5a9e9fc46219a30001f54994,63,2021-03-25_06h10.17.115,CombinedMST_OA,2020.2.10,MacIntel,60,,,,,,,,,,,,,,,,,,,,,,,,,,,,,,,,,,,,,,,,,,,,,,,,,,,,,,,,,,,,,,,1,1,0.492805,0,14,14,14,1,1,OLD,OLD,F,,,,,,,,,,,,,,,,,,,,,,,,,,,,,,,,,,,,,,
,,,,,,,,,,,,TestWords/VU_NA_WAI.wav,,5a9e9fc46219a30001f54994,63,2021-03-25_06h10.17.115,CombinedMST_OA,2020.2.10,MacIntel,60,,,,,,,,,,,,,,,,,,,,,,,,,,,,,,,,,,,,,,,,,,,,,,,,,,,,,,,,,,,,,,,1,0,0.29055,0,15,15,15,1,2,NEW,SIMILAR,F,,,,,,,,,,,,,,,,,,,,,,,,,,,,,,,,,,,,,,
,,,,,,,,,,,,TestWords/DAI_RU_CHI.wav,,5a9e9fc46219a30001f54994,63,2021-03-25_06h10.17.115,CombinedMST_OA,2020.2.10,MacIntel,60,,,,,,,,,,,,,,,,,,,,,,,,,,,,,,,,,,,,,,,,,,,,,,,,,,,,,,,,,,,,,,,2,0,0.335905,0,16,16,16,1,1,OLD,OLD,F,,,,,,,,,,,,,,,,,,,,,,,,,,,,,,,,,,,,,,
,,,,,,,,,,,,TestWords/KAY_LI_BA.wav,,5a9e9fc46219a30001f54994,63,2021-03-25_06h10.17.115,CombinedMST_OA,2020.2.10,MacIntel,60,,,,,,,,,,,,,,,,,,,,,,,,,,,,,,,,,,,,,,,,,,,,,,,,,,,,,,,,,,,,,,,2,1,0.45194,0,17,17,17,1,2,NEW,SIMILAR,F,,,,,,,,,,,,,,,,,,,,,,,,,,,,,,,,,,,,,,
,,,,,,,,,,,,TestWords/RAY_PA_TI.wav,,5a9e9fc46219a30001f54994,63,2021-03-25_06h10.17.115,CombinedMST_OA,2020.2.10,MacIntel,60,,,,,,,,,,,,,,,,,,,,,,,,,,,,,,,,,,,,,,,,,,,,,,,,,,,,,,,,,,,,,,,2,1,0.35491,0,18,18,18,1,2,NEW,NEW,F,,,,,,,,,,,,,,,,,,,,,,,,,,,,,,,,,,,,,,
,,,,,,,,,,,,TestWords/KAI_LAY_TA.wav,,5a9e9fc46219a30001f54994,63,2021-03-25_06h10.17.115,CombinedMST_OA,2020.2.10,MacIntel,60,,,,,,,,,,,,,,,,,,,,,,,,,,,,,,,,,,,,,,,,,,,,,,,,,,,,,,,,,,,,,,,1,1,0.455525,0,19,19,19,1,1,OLD,OLD,F,,,,,,,,,,,,,,,,,,,,,,,,,,,,,,,,,,,,,,
,,,,,,,,,,,,TestWords/VU_WAI_NA.wav,,5a9e9fc46219a30001f54994,63,2021-03-25_06h10.17.115,CombinedMST_OA,2020.2.10,MacIntel,60,,,,,,,,,,,,,,,,,,,,,,,,,,,,,,,,,,,,,,,,,,,,,,,,,,,,,,,,,,,,,,,1,0,0.30287,0,20,20,20,1,2,NEW,SIMILAR,F,,,,,,,,,,,,,,,,,,,,,,,,,,,,,,,,,,,,,,
,,,,,,,,,,,,TestWords/KO_SU_FAI.wav,,5a9e9fc46219a30001f54994,63,2021-03-25_06h10.17.115,CombinedMST_OA,2020.2.10,MacIntel,60,,,,,,,,,,,,,,,,,,,,,,,,,,,,,,,,,,,,,,,,,,,,,,,,,,,,,,,,,,,,,,,2,0,0.6019,0,21,21,21,1,1,OLD,OLD,F,,,,,,,,,,,,,,,,,,,,,,,,,,,,,,,,,,,,,,
,,,,,,,,,,,,TestWords/HI_NAY_VA.wav,,5a9e9fc46219a30001f54994,63,2021-03-25_06h10.17.115,CombinedMST_OA,2020.2.10,MacIntel,60,,,,,,,,,,,,,,,,,,,,,,,,,,,,,,,,,,,,,,,,,,,,,,,,,,,,,,,,,,,,,,,1,0,1.120515,0,22,22,22,1,2,NEW,NEW,F,,,,,,,,,,,,,,,,,,,,,,,,,,,,,,,,,,,,,,
,,,,,,,,,,,,TestWords/KAI_LAY_TA.wav,,5a9e9fc46219a30001f54994,63,2021-03-25_06h10.17.115,CombinedMST_OA,2020.2.10,MacIntel,60,,,,,,,,,,,,,,,,,,,,,,,,,,,,,,,,,,,,,,,,,,,,,,,,,,,,,,,,,,,,,,,1,1,0.402325,0,23,23,23,1,1,OLD,OLD,F,,,,,,,,,,,,,,,,,,,,,,,,,,,,,,,,,,,,,,
,,,,,,,,,,,,TestWords/RAY_PA_TI.wav,,5a9e9fc46219a30001f54994,63,2021-03-25_06h10.17.115,CombinedMST_OA,2020.2.10,MacIntel,60,,,,,,,,,,,,,,,,,,,,,,,,,,,,,,,,,,,,,,,,,,,,,,,,,,,,,,,,,,,,,,,1,1,0.46958,0,24,24,24,1,1,OLD,OLD,F,,,,,,,,,,,,,,,,,,,,,,,,,,,,,,,,,,,,,,
,,,,,,,,,,,,TestWords/DAI_RU_CHI.wav,,5a9e9fc46219a30001f54994,63,2021-03-25_06h10.17.115,CombinedMST_OA,2020.2.10,MacIntel,60,,,,,,,,,,,,,,,,,,,,,,,,,,,,,,,,,,,,,,,,,,,,,,,,,,,,,,,,,,,,,,,1,1,0.507725,0,25,25,25,1,1,OLD,OLD,F,,,,,,,,,,,,,,,,,,,,,,,,,,,,,,,,,,,,,,
,,,,,,,,,,,,TestWords/NA_VU_WAI.wav,,5a9e9fc46219a30001f54994,63,2021-03-25_06h10.17.115,CombinedMST_OA,2020.2.10,MacIntel,60,,,,,,,,,,,,,,,,,,,,,,,,,,,,,,,,,,,,,,,,,,,,,,,,,,,,,,,,,,,,,,,1,0,0.436095,0,26,26,26,1,2,NEW,SIMILAR,F,,,,,,,,,,,,,,,,,,,,,,,,,,,,,,,,,,,,,,
,,,,,,,,,,,,TestWords/KAY_BA_LI.wav,,5a9e9fc46219a30001f54994,63,2021-03-25_06h10.17.115,CombinedMST_OA,2020.2.10,MacIntel,60,,,,,,,,,,,,,,,,,,,,,,,,,,,,,,,,,,,,,,,,,,,,,,,,,,,,,,,,,,,,,,,1,0,0.68852,0,27,27,27,1,2,NEW,SIMILAR,F,,,,,,,,,,,,,,,,,,,,,,,,,,,,,,,,,,,,,,
,,,,,,,,,,,,TestWords/KO_SU_FAI.wav,,5a9e9fc46219a30001f54994,63,2021-03-25_06h10.17.115,CombinedMST_OA,2020.2.10,MacIntel,60,,,,,,,,,,,,,,,,,,,,,,,,,,,,,,,,,,,,,,,,,,,,,,,,,,,,,,,,,,,,,,,2,0,0.758305,0,28,28,28,1,1,OLD,OLD,F,,,,,,,,,,,,,,,,,,,,,,,,,,,,,,,,,,,,,,
,,,,,,,,,,,,TestWords/KAI_LAY_TA.wav,,5a9e9fc46219a30001f54994,63,2021-03-25_06h10.17.115,CombinedMST_OA,2020.2.10,MacIntel,60,,,,,,,,,,,,,,,,,,,,,,,,,,,,,,,,,,,,,,,,,,,,,,,,,,,,,,,,,,,,,,,2,0,1.39081,0,29,29,29,1,1,OLD,OLD,F,,,,,,,,,,,,,,,,,,,,,,,,,,,,,,,,,,,,,,
,,,,,,,,,,,,TestWords/RAY_PA_TI.wav,,5a9e9fc46219a30001f54994,63,2021-03-25_06h10.17.115,CombinedMST_OA,2020.2.10,MacIntel,60,,,,,,,,,,,,,,,,,,,,,,,,,,,,,,,,,,,,,,,,,,,,,,,,,,,,,,,,,,,,,,,1,1,0.32196,0,30,30,30,1,1,OLD,OLD,F,,,,,,,,,,,,,,,,,,,,,,,,,,,,,,,,,,,,,,
,,,,,,,,,,,,TestWords/NU_CHAY_SO.wav,,5a9e9fc46219a30001f54994,63,2021-03-25_06h10.17.115,CombinedMST_OA,2020.2.10,MacIntel,60,,,,,,,,,,,,,,,,,,,,,,,,,,,,,,,,,,,,,,,,,,,,,,,,,,,,,,,,,,,,,,,2,1,0.55563,0,31,31,31,1,2,NEW,NEW,F,,,,,,,,,,,,,,,,,,,,,,,,,,,,,,,,,,,,,,
,,,,,,,,,,,,TestWords/DAI_RU_CHI.wav,,5a9e9fc46219a30001f54994,63,2021-03-25_06h10.17.115,CombinedMST_OA,2020.2.10,MacIntel,60,,,,,,,,,,,,,,,,,,,,,,,,,,,,,,,,,,,,,,,,,,,,,,,,,,,,,,,,,,,,,,,1,1,0.469475,0,32,32,32,1,1,OLD,OLD,F,,,,,,,,,,,,,,,,,,,,,,,,,,,,,,,,,,,,,,
,,,,,,,,,,,,TestWords/NA_WAI_VU.wav,,5a9e9fc46219a30001f54994,63,2021-03-25_06h10.17.115,CombinedMST_OA,2020.2.10,MacIntel,60,,,,,,,,,,,,,,,,,,,,,,,,,,,,,,,,,,,,,,,,,,,,,,,,,,,,,,,,,,,,,,,1,0,1.53674,0,33,33,33,1,2,NEW,SIMILAR,F,,,,,,,,,,,,,,,,,,,,,,,,,,,,,,,,,,,,,,
,,,,,,,,,,,,TestWords/GA_MU_ZI.wav,,5a9e9fc46219a30001f54994,63,2021-03-25_06h10.17.115,CombinedMST_OA,2020.2.10,MacIntel,60,,,,,,,,,,,,,,,,,,,,,,,,,,,,,,,,,,,,,,,,,,,,,,,,,,,,,,,,,,,,,,,2,1,0.255515,0,34,34,34,1,2,NEW,NEW,F,,,,,,,,,,,,,,,,,,,,,,,,,,,,,,,,,,,,,,
,,,,,,,,,,,,TestWords/KAI_LAY_TA.wav,,5a9e9fc46219a30001f54994,63,2021-03-25_06h10.17.115,CombinedMST_OA,2020.2.10,MacIntel,60,,,,,,,,,,,,,,,,,,,,,,,,,,,,,,,,,,,,,,,,,,,,,,,,,,,,,,,,,,,,,,,1,1,0.502415,0,35,35,35,1,1,OLD,OLD,F,,,,,,,,,,,,,,,,,,,,,,,,,,,,,,,,,,,,,,
,,,,,,,,,,,,TestWords/LI_BA_KAY.wav,,5a9e9fc46219a30001f54994,63,2021-03-25_06h10.17.115,CombinedMST_OA,2020.2.10,MacIntel,60,,,,,,,,,,,,,,,,,,,,,,,,,,,,,,,,,,,,,,,,,,,,,,,,,,,,,,,,,,,,,,,1,0,0.41899,0,36,36,36,1,2,NEW,SIMILAR,F,,,,,,,,,,,,,,,,,,,,,,,,,,,,,,,,,,,,,,
,,,,,,,,,,,,TestWords/KO_SU_FAI.wav,,5a9e9fc46219a30001f54994,63,2021-03-25_06h10.17.115,CombinedMST_OA,2020.2.10,MacIntel,60,,,,,,,,,,,,,,,,,,,,,,,,,,,,,,,,,,,,,,,,,,,,,,,,,,,,,,,,,,,,,,,1,1,0.784985,0,37,37,37,1,1,OLD,OLD,F,,,,,,,,,,,,,,,,,,,,,,,,,,,,,,,,,,,,,,
,,,,,,,,,,,,TestWords/RAY_PA_TI.wav,,5a9e9fc46219a30001f54994,63,2021-03-25_06h10.17.115,CombinedMST_OA,2020.2.10,MacIntel,60,,,,,,,,,,,,,,,,,,,,,,,,,,,,,,,,,,,,,,,,,,,,,,,,,,,,,,,,,,,,,,,1,1,0.30214,0,38,38,38,1,1,OLD,OLD,F,,,,,,,,,,,,,,,,,,,,,,,,,,,,,,,,,,,,,,
,,,,,,,,,,,,TestWords/TAI_SA_GI.wav,,5a9e9fc46219a30001f54994,63,2021-03-25_06h10.17.115,CombinedMST_OA,2020.2.10,MacIntel,60,,,,,,,,,,,,,,,,,,,,,,,,,,,,,,,,,,,,,,,,,,,,,,,,,,,,,,,,,,,,,,,2,1,0.49182,0,39,39,39,1,2,NEW,NEW,F,,,,,,,,,,,,,,,,,,,,,,,,,,,,,,,,,,,,,,
,,,,,,,,,,,,TestWords/DAI_RU_CHI.wav,,5a9e9fc46219a30001f54994,63,2021-03-25_06h10.17.115,CombinedMST_OA,2020.2.10,MacIntel,60,,,,,,,,,,,,,,,,,,,,,,,,,,,,,,,,,,,,,,,,,,,,,,,,,,,,,,,,,,,,,,,1,1,0.40292,0,40,40,40,1,1,OLD,OLD,F,,,,,,,,,,,,,,,,,,,,,,,,,,,,,,,,,,,,,,
,,,,,,,,,,,,TestWords/GA_MU_ZI.wav,,5a9e9fc46219a30001f54994,63,2021-03-25_06h10.17.115,CombinedMST_OA,2020.2.10,MacIntel,60,,,,,,,,,,,,,,,,,,,,,,,,,,,,,,,,,,,,,,,,,,,,,,,,,,,,,,,,,,,,,,,2,0,0.285465,0,41,41,41,1,1,OLD,OLD,F,,,,,,,,,,,,,,,,,,,,,,,,,,,,,,,,,,,,,,
,,,,,,,,,,,,TestWords/KAI_LAY_TA.wav,,5a9e9fc46219a30001f54994,63,2021-03-25_06h10.17.115,CombinedMST_OA,2020.2.10,MacIntel,60,,,,,,,,,,,,,,,,,,,,,,,,,,,,,,,,,,,,,,,,,,,,,,,,,,,,,,,,,,,,,,,1,1,0.33487,0,42,42,42,1,1,OLD,OLD,F,,,,,,,,,,,,,,,,,,,,,,,,,,,,,,,,,,,,,,
,,,,,,,,,,,,TestWords/GI_SA_TAI.wav,,5a9e9fc46219a30001f54994,63,2021-03-25_06h10.17.115,CombinedMST_OA,2020.2.10,MacIntel,60,,,,,,,,,,,,,,,,,,,,,,,,,,,,,,,,,,,,,,,,,,,,,,,,,,,,,,,,,,,,,,,2,1,0.953175,0,43,43,43,1,2,NEW,SIMILAR,F,,,,,,,,,,,,,,,,,,,,,,,,,,,,,,,,,,,,,,
,,,,,,,,,,,,TestWords/BA_LI_KAY.wav,,5a9e9fc46219a30001f54994,63,2021-03-25_06h10.17.115,CombinedMST_OA,2020.2.10,MacIntel,60,,,,,,,,,,,,,,,,,,,,,,,,,,,,,,,,,,,,,,,,,,,,,,,,,,,,,,,,,,,,,,,1,0,1.305405,0,44,44,44,1,2,NEW,SIMILAR,F,,,,,,,,,,,,,,,,,,,,,,,,,,,,,,,,,,,,,,
,,,,,,,,,,,,TestWords/KO_SU_FAI.wav,,5a9e9fc46219a30001f54994,63,2021-03-25_06h10.17.115,CombinedMST_OA,2020.2.10,MacIntel,60,,,,,,,,,,,,,,,,,,,,,,,,,,,,,,,,,,,,,,,,,,,,,,,,,,,,,,,,,,,,,,,1,1,0.65198,0,45,45,45,1,1,OLD,OLD,F,,,,,,,,,,,,,,,,,,,,,,,,,,,,,,,,,,,,,,
,,,,,,,,,,,,TestWords/RAY_PA_TI.wav,,5a9e9fc46219a30001f54994,63,2021-03-25_06h10.17.115,CombinedMST_OA,2020.2.10,MacIntel,60,,,,,,,,,,,,,,,,,,,,,,,,,,,,,,,,,,,,,,,,,,,,,,,,,,,,,,,,,,,,,,,1,1,0.275095,0,46,46,46,1,1,OLD,OLD,F,,,,,,,,,,,,,,,,,,,,,,,,,,,,,,,,,,,,,,
,,,,,,,,,,,,TestWords/GA_MU_ZI.wav,,5a9e9fc46219a30001f54994,63,2021-03-25_06h10.17.115,CombinedMST_OA,2020.2.10,MacIntel,60,,,,,,,,,,,,,,,,,,,,,,,,,,,,,,,,,,,,,,,,,,,,,,,,,,,,,,,,,,,,,,,1,1,0.3569,0,47,47,47,1,1,OLD,OLD,F,,,,,,,,,,,,,,,,,,,,,,,,,,,,,,,,,,,,,,
,,,,,,,,,,,,TestWords/LU_HAI_BO.wav,,5a9e9fc46219a30001f54994,63,2021-03-25_06h10.17.115,CombinedMST_OA,2020.2.10,MacIntel,60,,,,,,,,,,,,,,,,,,,,,,,,,,,,,,,,,,,,,,,,,,,,,,,,,,,,,,,,,,,,,,,1,0,0.98837,0,48,48,48,1,2,NEW,NEW,F,,,,,,,,,,,,,,,,,,,,,,,,,,,,,,,,,,,,,,
,,,,,,,,,,,,TestWords/KAI_LAY_TA.wav,,5a9e9fc46219a30001f54994,63,2021-03-25_06h10.17.115,CombinedMST_OA,2020.2.10,MacIntel,60,,,,,,,,,,,,,,,,,,,,,,,,,,,,,,,,,,,,,,,,,,,,,,,,,,,,,,,,,,,,,,,1,1,0.30597,0,49,49,49,1,1,OLD,OLD,F,,,,,,,,,,,,,,,,,,,,,,,,,,,,,,,,,,,,,,
,,,,,,,,,,,,TestWords/DAI_RU_CHI.wav,,5a9e9fc46219a30001f54994,63,2021-03-25_06h10.17.115,CombinedMST_OA,2020.2.10,MacIntel,60,,,,,,,,,,,,,,,,,,,,,,,,,,,,,,,,,,,,,,,,,,,,,,,,,,,,,,,,,,,,,,,1,1,0.31819,0,50,50,50,1,1,OLD,OLD,F,,,,,,,,,,,,,,,,,,,,,,,,,,,,,,,,,,,,,,
,,,,,,,,,,,,TestWords/GI_TAI_SA.wav,,5a9e9fc46219a30001f54994,63,2021-03-25_06h10.17.115,CombinedMST_OA,2020.2.10,MacIntel,60,,,,,,,,,,,,,,,,,,,,,,,,,,,,,,,,,,,,,,,,,,,,,,,,,,,,,,,,,,,,,,,1,0,0.91956,0,51,51,51,1,2,NEW,SIMILAR,F,,,,,,,,,,,,,,,,,,,,,,,,,,,,,,,,,,,,,,
,,,,,,,,,,,,TestWords/LI_KAY_BA.wav,,5a9e9fc46219a30001f54994,63,2021-03-25_06h10.17.115,CombinedMST_OA,2020.2.10,MacIntel,60,,,,,,,,,,,,,,,,,,,,,,,,,,,,,,,,,,,,,,,,,,,,,,,,,,,,,,,,,,,,,,,1,0,0.46801,0,52,52,52,1,2,NEW,SIMILAR,F,,,,,,,,,,,,,,,,,,,,,,,,,,,,,,,,,,,,,,
,,,,,,,,,,,,TestWords/RAY_PA_TI.wav,,5a9e9fc46219a30001f54994,63,2021-03-25_06h10.17.115,CombinedMST_OA,2020.2.10,MacIntel,60,,,,,,,,,,,,,,,,,,,,,,,,,,,,,,,,,,,,,,,,,,,,,,,,,,,,,,,,,,,,,,,1,1,0.206725,0,53,53,53,1,1,OLD,OLD,F,,,,,,,,,,,,,,,,,,,,,,,,,,,,,,,,,,,,,,
,,,,,,,,,,,,TestWords/KO_SU_FAI.wav,,5a9e9fc46219a30001f54994,63,2021-03-25_06h10.17.115,CombinedMST_OA,2020.2.10,MacIntel,60,,,,,,,,,,,,,,,,,,,,,,,,,,,,,,,,,,,,,,,,,,,,,,,,,,,,,,,,,,,,,,,2,0,1.008315,0,54,54,54,1,1,OLD,OLD,F,,,,,,,,,,,,,,,,,,,,,,,,,,,,,,,,,,,,,,
,,,,,,,,,,,,TestWords/DAY_PU_MO.wav,,5a9e9fc46219a30001f54994,63,2021-03-25_06h10.17.115,CombinedMST_OA,2020.2.10,MacIntel,60,,,,,,,,,,,,,,,,,,,,,,,,,,,,,,,,,,,,,,,,,,,,,,,,,,,,,,,,,,,,,,,2,1,0.54326,0,55,55,55,1,2,NEW,NEW,F,,,,,,,,,,,,,,,,,,,,,,,,,,,,,,,,,,,,,,
,,,,,,,,,,,,TestWords/KAI_LAY_TA.wav,,5a9e9fc46219a30001f54994,63,2021-03-25_06h10.17.115,CombinedMST_OA,2020.2.10,MacIntel,60,,,,,,,,,,,,,,,,,,,,,,,,,,,,,,,,,,,,,,,,,,,,,,,,,,,,,,,,,,,,,,,1,1,0.337635,0,56,56,56,1,1,OLD,OLD,F,,,,,,,,,,,,,,,,,,,,,,,,,,,,,,,,,,,,,,
,,,,,,,,,,,,TestWords/GA_MU_ZI.wav,,5a9e9fc46219a30001f54994,63,2021-03-25_06h10.17.115,CombinedMST_OA,2020.2.10,MacIntel,60,,,,,,,,,,,,,,,,,,,,,,,,,,,,,,,,,,,,,,,,,,,,,,,,,,,,,,,,,,,,,,,1,1,0.55459,0,57,57,57,1,1,OLD,OLD,F,,,,,,,,,,,,,,,,,,,,,,,,,,,,,,,,,,,,,,
,,,,,,,,,,,,TestWords/CHU_LA_PAY.wav,,5a9e9fc46219a30001f54994,63,2021-03-25_06h10.17.115,CombinedMST_OA,2020.2.10,MacIntel,60,,,,,,,,,,,,,,,,,,,,,,,,,,,,,,,,,,,,,,,,,,,,,,,,,,,,,,,,,,,,,,,1,0,0.819295,0,58,58,58,1,2,NEW,NEW,F,,,,,,,,,,,,,,,,,,,,,,,,,,,,,,,,,,,,,,
,,,,,,,,,,,,TestWords/DAI_RU_CHI.wav,,5a9e9fc46219a30001f54994,63,2021-03-25_06h10.17.115,CombinedMST_OA,2020.2.10,MacIntel,60,,,,,,,,,,,,,,,,,,,,,,,,,,,,,,,,,,,,,,,,,,,,,,,,,,,,,,,,,,,,,,,1,1,0.269855,0,59,59,59,1,1,OLD,OLD,F,,,,,,,,,,,,,,,,,,,,,,,,,,,,,,,,,,,,,,
,,,,,,,,,,,,TestWords/SA_TAI_GI.wav,,5a9e9fc46219a30001f54994,63,2021-03-25_06h10.17.115,CombinedMST_OA,2020.2.10,MacIntel,60,,,,,,,,,,,,,,,,,,,,,,,,,,,,,,,,,,,,,,,,,,,,,,,,,,,,,,,,,,,,,,,1,0,0.653525,0,60,60,60,1,2,NEW,SIMILAR,F,,,,,,,,,,,,,,,,,,,,,,,,,,,,,,,,,,,,,,
,,,,,,,,,,,,TestWords/RAY_PA_TI.wav,,5a9e9fc46219a30001f54994,63,2021-03-25_06h10.17.115,CombinedMST_OA,2020.2.10,MacIntel,60,,,,,,,,,,,,,,,,,,,,,,,,,,,,,,,,,,,,,,,,,,,,,,,,,,,,,,,,,,,,,,,1,1,0.137835,0,61,61,61,1,1,OLD,OLD,F,,,,,,,,,,,,,,,,,,,,,,,,,,,,,,,,,,,,,,
,,,,,,,,,,,,TestWords/KAI_LAY_TA.wav,,5a9e9fc46219a30001f54994,63,2021-03-25_06h10.17.115,CombinedMST_OA,2020.2.10,MacIntel,60,,,,,,,,,,,,,,,,,,,,,,,,,,,,,,,,,,,,,,,,,,,,,,,,,,,,,,,,,,,,,,,1,1,0.21914,0,62,62,62,1,1,OLD,OLD,F,,,,,,,,,,,,,,,,,,,,,,,,,,,,,,,,,,,,,,
,,,,,,,,,,,,TestWords/FU_RAI_ZO.wav,,5a9e9fc46219a30001f54994,63,2021-03-25_06h10.17.115,CombinedMST_OA,2020.2.10,MacIntel,60,,,,,,,,,,,,,,,,,,,,,,,,,,,,,,,,,,,,,,,,,,,,,,,,,,,,,,,,,,,,,,,1,0,0.7689,0,63,63,63,1,2,NEW,NEW,F,,,,,,,,,,,,,,,,,,,,,,,,,,,,,,,,,,,,,,
,,,,,,,,,,,,TestWords/KO_SU_FAI.wav,,5a9e9fc46219a30001f54994,63,2021-03-25_06h10.17.115,CombinedMST_OA,2020.2.10,MacIntel,60,,,,,,,,,,,,,,,,,,,,,,,,,,,,,,,,,,,,,,,,,,,,,,,,,,,,,,,,,,,,,,,1,1,0.67439,0,64,64,64,1,1,OLD,OLD,F,,,,,,,,,,,,,,,,,,,,,,,,,,,,,,,,,,,,,,
,,,,,,,,,,,,TestWords/GA_MU_ZI.wav,,5a9e9fc46219a30001f54994,63,2021-03-25_06h10.17.115,CombinedMST_OA,2020.2.10,MacIntel,60,,,,,,,,,,,,,,,,,,,,,,,,,,,,,,,,,,,,,,,,,,,,,,,,,,,,,,,,,,,,,,,1,1,0.351335,0,65,65,65,1,1,OLD,OLD,F,,,,,,,,,,,,,,,,,,,,,,,,,,,,,,,,,,,,,,
,,,,,,,,,,,,TestWords/DAY_MO_PU.wav,,5a9e9fc46219a30001f54994,63,2021-03-25_06h10.17.115,CombinedMST_OA,2020.2.10,MacIntel,60,,,,,,,,,,,,,,,,,,,,,,,,,,,,,,,,,,,,,,,,,,,,,,,,,,,,,,,,,,,,,,,2,1,0.40225,0,66,66,66,1,2,NEW,SIMILAR,F,,,,,,,,,,,,,,,,,,,,,,,,,,,,,,,,,,,,,,
,,,,,,,,,,,,TestWords/DAI_RU_CHI.wav,,5a9e9fc46219a30001f54994,63,2021-03-25_06h10.17.115,CombinedMST_OA,2020.2.10,MacIntel,60,,,,,,,,,,,,,,,,,,,,,,,,,,,,,,,,,,,,,,,,,,,,,,,,,,,,,,,,,,,,,,,1,1,0.23693,0,67,67,67,1,1,OLD,OLD,F,,,,,,,,,,,,,,,,,,,,,,,,,,,,,,,,,,,,,,
,,,,,,,,,,,,TestWords/FI_GU_CHA.wav,,5a9e9fc46219a30001f54994,63,2021-03-25_06h10.17.115,CombinedMST_OA,2020.2.10,MacIntel,60,,,,,,,,,,,,,,,,,,,,,,,,,,,,,,,,,,,,,,,,,,,,,,,,,,,,,,,,,,,,,,,2,1,0.62232,0,68,68,68,1,2,NEW,NEW,F,,,,,,,,,,,,,,,,,,,,,,,,,,,,,,,,,,,,,,
,,,,,,,,,,,,TestWords/GA_MU_ZI.wav,,5a9e9fc46219a30001f54994,63,2021-03-25_06h10.17.115,CombinedMST_OA,2020.2.10,MacIntel,60,,,,,,,,,,,,,,,,,,,,,,,,,,,,,,,,,,,,,,,,,,,,,,,,,,,,,,,,,,,,,,,1,1,0.253575,0,69,69,69,1,1,OLD,OLD,F,,,,,,,,,,,,,,,,,,,,,,,,,,,,,,,,,,,,,,
,,,,,,,,,,,,TestWords/RAY_PA_TI.wav,,5a9e9fc46219a30001f54994,63,2021-03-25_06h10.17.115,CombinedMST_OA,2020.2.10,MacIntel,60,,,,,,,,,,,,,,,,,,,,,,,,,,,,,,,,,,,,,,,,,,,,,,,,,,,,,,,,,,,,,,,1,1,0.185775,0,70,70,70,1,1,OLD,OLD,F,,,,,,,,,,,,,,,,,,,,,,,,,,,,,,,,,,,,,,
,,,,,,,,,,,,TestWords/SA_GI_TAI.wav,,5a9e9fc46219a30001f54994,63,2021-03-25_06h10.17.115,CombinedMST_OA,2020.2.10,MacIntel,60,,,,,,,,,,,,,,,,,,,,,,,,,,,,,,,,,,,,,,,,,,,,,,,,,,,,,,,,,,,,,,,1,0,0.586795,0,71,71,71,1,2,NEW,SIMILAR,F,,,,,,,,,,,,,,,,,,,,,,,,,,,,,,,,,,,,,,
,,,,,,,,,,,,TestWords/MO_DAY_PU.wav,,5a9e9fc46219a30001f54994,63,2021-03-25_06h10.17.115,CombinedMST_OA,2020.2.10,MacIntel,60,,,,,,,,,,,,,,,,,,,,,,,,,,,,,,,,,,,,,,,,,,,,,,,,,,,,,,,,,,,,,,,1,0,0.785555,0,72,72,72,1,2,NEW,SIMILAR,F,,,,,,,,,,,,,,,,,,,,,,,,,,,,,,,,,,,,,,
,,,,,,,,,,,,TestWords/KO_SU_FAI.wav,,5a9e9fc46219a30001f54994,63,2021-03-25_06h10.17.115,CombinedMST_OA,2020.2.10,MacIntel,60,,,,,,,,,,,,,,,,,,,,,,,,,,,,,,,,,,,,,,,,,,,,,,,,,,,,,,,,,,,,,,,1,1,0.674555,0,73,73,73,1,1,OLD,OLD,F,,,,,,,,,,,,,,,,,,,,,,,,,,,,,,,,,,,,,,
,,,,,,,,,,,,TestWords/RAI_ZO_FU.wav,,5a9e9fc46219a30001f54994,63,2021-03-25_06h10.17.115,CombinedMST_OA,2020.2.10,MacIntel,60,,,,,,,,,,,,,,,,,,,,,,,,,,,,,,,,,,,,,,,,,,,,,,,,,,,,,,,,,,,,,,,2,1,1.055095,0,74,74,74,1,2,NEW,SIMILAR,F,,,,,,,,,,,,,,,,,,,,,,,,,,,,,,,,,,,,,,
,,,,,,,,,,,,TestWords/GA_MU_ZI.wav,,5a9e9fc46219a30001f54994,63,2021-03-25_06h10.17.115,CombinedMST_OA,2020.2.10,MacIntel,60,,,,,,,,,,,,,,,,,,,,,,,,,,,,,,,,,,,,,,,,,,,,,,,,,,,,,,,,,,,,,,,1,1,0.23528,0,75,75,75,1,1,OLD,OLD,F,,,,,,,,,,,,,,,,,,,,,,,,,,,,,,,,,,,,,,
,,,,,,,,,,,,TestWords/DAI_RU_CHI.wav,,5a9e9fc46219a30001f54994,63,2021-03-25_06h10.17.115,CombinedMST_OA,2020.2.10,MacIntel,60,,,,,,,,,,,,,,,,,,,,,,,,,,,,,,,,,,,,,,,,,,,,,,,,,,,,,,,,,,,,,,,1,1,0.355485,0,76,76,76,1,1,OLD,OLD,F,,,,,,,,,,,,,,,,,,,,,,,,,,,,,,,,,,,,,,
,,,,,,,,,,,,TestWords/TAI_GI_SA.wav,,5a9e9fc46219a30001f54994,63,2021-03-25_06h10.17.115,CombinedMST_OA,2020.2.10,MacIntel,60,,,,,,,,,,,,,,,,,,,,,,,,,,,,,,,,,,,,,,,,,,,,,,,,,,,,,,,,,,,,,,,2,1,0.45519,0,77,77,77,1,2,NEW,SIMILAR,F,,,,,,,,,,,,,,,,,,,,,,,,,,,,,,,,,,,,,,
,,,,,,,,,,,,TestWords/RAY_PA_TI.wav,,5a9e9fc46219a30001f54994,63,2021-03-25_06h10.17.115,CombinedMST_OA,2020.2.10,MacIntel,60,,,,,,,,,,,,,,,,,,,,,,,,,,,,,,,,,,,,,,,,,,,,,,,,,,,,,,,,,,,,,,,1,1,0.321305,0,78,78,78,1,1,OLD,OLD,F,,,,,,,,,,,,,,,,,,,,,,,,,,,,,,,,,,,,,,
,,,,,,,,,,,,TestWords/PU_DAY_MO.wav,,5a9e9fc46219a30001f54994,63,2021-03-25_06h10.17.115,CombinedMST_OA,2020.2.10,MacIntel,60,,,,,,,,,,,,,,,,,,,,,,,,,,,,,,,,,,,,,,,,,,,,,,,,,,,,,,,,,,,,,,,2,1,1.589905,0,79,79,79,1,2,NEW,SIMILAR,F,,,,,,,,,,,,,,,,,,,,,,,,,,,,,,,,,,,,,,
,,,,,,,,,,,,TestWords/KO_SU_FAI.wav,,5a9e9fc46219a30001f54994,63,2021-03-25_06h10.17.115,CombinedMST_OA,2020.2.10,MacIntel,60,,,,,,,,,,,,,,,,,,,,,,,,,,,,,,,,,,,,,,,,,,,,,,,,,,,,,,,,,,,,,,,1,1,0.535975,0,80,80,80,1,1,OLD,OLD,F,,,,,,,,,,,,,,,,,,,,,,,,,,,,,,,,,,,,,,
,,,,,,,,,,,,TestWords/ZO_RAI_FU.wav,,5a9e9fc46219a30001f54994,63,2021-03-25_06h10.17.115,CombinedMST_OA,2020.2.10,MacIntel,60,,,,,,,,,,,,,,,,,,,,,,,,,,,,,,,,,,,,,,,,,,,,,,,,,,,,,,,,,,,,,,,2,1,0.953315,0,81,81,81,1,2,NEW,SIMILAR,F,,,,,,,,,,,,,,,,,,,,,,,,,,,,,,,,,,,,,,
,,,,,,,,,,,,TestWords/GA_MU_ZI.wav,,5a9e9fc46219a30001f54994,63,2021-03-25_06h10.17.115,CombinedMST_OA,2020.2.10,MacIntel,60,,,,,,,,,,,,,,,,,,,,,,,,,,,,,,,,,,,,,,,,,,,,,,,,,,,,,,,,,,,,,,,1,1,0.48638,0,82,82,82,1,1,OLD,OLD,F,,,,,,,,,,,,,,,,,,,,,,,,,,,,,,,,,,,,,,
,,,,,,,,,,,,TestWords/RAY_PA_TI.wav,,5a9e9fc46219a30001f54994,63,2021-03-25_06h10.17.115,CombinedMST_OA,2020.2.10,MacIntel,60,,,,,,,,,,,,,,,,,,,,,,,,,,,,,,,,,,,,,,,,,,,,,,,,,,,,,,,,,,,,,,,1,1,0.317995,0,83,83,83,1,1,OLD,OLD,F,,,,,,,,,,,,,,,,,,,,,,,,,,,,,,,,,,,,,,
,,,,,,,,,,,,TestWords/DAI_RU_CHI.wav,,5a9e9fc46219a30001f54994,63,2021-03-25_06h10.17.115,CombinedMST_OA,2020.2.10,MacIntel,60,,,,,,,,,,,,,,,,,,,,,,,,,,,,,,,,,,,,,,,,,,,,,,,,,,,,,,,,,,,,,,,1,1,0.220735,0,84,84,84,1,1,OLD,OLD,F,,,,,,,,,,,,,,,,,,,,,,,,,,,,,,,,,,,,,,
,,,,,,,,,,,,TestWords/GA_MU_ZI.wav,,5a9e9fc46219a30001f54994,63,2021-03-25_06h10.17.115,CombinedMST_OA,2020.2.10,MacIntel,60,,,,,,,,,,,,,,,,,,,,,,,,,,,,,,,,,,,,,,,,,,,,,,,,,,,,,,,,,,,,,,,1,1,0.15176,0,85,85,85,1,1,OLD,OLD,F,,,,,,,,,,,,,,,,,,,,,,,,,,,,,,,,,,,,,,
,,,,,,,,,,,,TestWords/NO_WA_BAY.wav,,5a9e9fc46219a30001f54994,63,2021-03-25_06h10.17.115,CombinedMST_OA,2020.2.10,MacIntel,60,,,,,,,,,,,,,,,,,,,,,,,,,,,,,,,,,,,,,,,,,,,,,,,,,,,,,,,,,,,,,,,2,1,0.80244,0,86,86,86,1,2,NEW,NEW,F,,,,,,,,,,,,,,,,,,,,,,,,,,,,,,,,,,,,,,
,,,,,,,,,,,,TestWords/FU_ZO_RAI.wav,,5a9e9fc46219a30001f54994,63,2021-03-25_06h10.17.115,CombinedMST_OA,2020.2.10,MacIntel,60,,,,,,,,,,,,,,,,,,,,,,,,,,,,,,,,,,,,,,,,,,,,,,,,,,,,,,,,,,,,,,,1,0,0.70241,0,87,87,87,1,2,NEW,SIMILAR,F,,,,,,,,,,,,,,,,,,,,,,,,,,,,,,,,,,,,,,
,,,,,,,,,,,,TestWords/KO_SU_FAI.wav,,5a9e9fc46219a30001f54994,63,2021-03-25_06h10.17.115,CombinedMST_OA,2020.2.10,MacIntel,60,,,,,,,,,,,,,,,,,,,,,,,,,,,,,,,,,,,,,,,,,,,,,,,,,,,,,,,,,,,,,,,1,1,0.805175,0,88,88,88,1,1,OLD,OLD,F,,,,,,,,,,,,,,,,,,,,,,,,,,,,,,,,,,,,,,
,,,,,,,,,,,,TestWords/PU_MO_DAY.wav,,5a9e9fc46219a30001f54994,63,2021-03-25_06h10.17.115,CombinedMST_OA,2020.2.10,MacIntel,60,,,,,,,,,,,,,,,,,,,,,,,,,,,,,,,,,,,,,,,,,,,,,,,,,,,,,,,,,,,,,,,2,1,0.4091,0,89,89,89,1,2,NEW,SIMILAR,F,,,,,,,,,,,,,,,,,,,,,,,,,,,,,,,,,,,,,,
,,,,,,,,,,,,TestWords/RAY_PA_TI.wav,,5a9e9fc46219a30001f54994,63,2021-03-25_06h10.17.115,CombinedMST_OA,2020.2.10,MacIntel,60,,,,,,,,,,,,,,,,,,,,,,,,,,,,,,,,,,,,,,,,,,,,,,,,,,,,,,,,,,,,,,,1,1,0.201935,0,90,90,90,1,1,OLD,OLD,F,,,,,,,,,,,,,,,,,,,,,,,,,,,,,,,,,,,,,,
,,,,,,,,,,,,TestWords/DAI_RU_CHI.wav,,5a9e9fc46219a30001f54994,63,2021-03-25_06h10.17.115,CombinedMST_OA,2020.2.10,MacIntel,60,,,,,,,,,,,,,,,,,,,,,,,,,,,,,,,,,,,,,,,,,,,,,,,,,,,,,,,,,,,,,,,1,1,0.203435,0,91,91,91,1,1,OLD,OLD,F,,,,,,,,,,,,,,,,,,,,,,,,,,,,,,,,,,,,,,
,,,,,,,,,,,,TestWords/RAI_FU_ZO.wav,,5a9e9fc46219a30001f54994,63,2021-03-25_06h10.17.115,CombinedMST_OA,2020.2.10,MacIntel,60,,,,,,,,,,,,,,,,,,,,,,,,,,,,,,,,,,,,,,,,,,,,,,,,,,,,,,,,,,,,,,,1,0,0.335515,0,92,92,92,1,2,NEW,SIMILAR,F,,,,,,,,,,,,,,,,,,,,,,,,,,,,,,,,,,,,,,
,,,,,,,,,,,,TestWords/GA_MU_ZI.wav,,5a9e9fc46219a30001f54994,63,2021-03-25_06h10.17.115,CombinedMST_OA,2020.2.10,MacIntel,60,,,,,,,,,,,,,,,,,,,,,,,,,,,,,,,,,,,,,,,,,,,,,,,,,,,,,,,,,,,,,,,1,1,0.15411,0,93,93,93,1,1,OLD,OLD,F,,,,,,,,,,,,,,,,,,,,,,,,,,,,,,,,,,,,,,
,,,,,,,,,,,,TestWords/HA_SI_JAI.wav,,5a9e9fc46219a30001f54994,63,2021-03-25_06h10.17.115,CombinedMST_OA,2020.2.10,MacIntel,60,,,,,,,,,,,,,,,,,,,,,,,,,,,,,,,,,,,,,,,,,,,,,,,,,,,,,,,,,,,,,,,2,1,0.55315,0,94,94,94,1,2,NEW,NEW,F,,,,,,,,,,,,,,,,,,,,,,,,,,,,,,,,,,,,,,
,,,,,,,,,,,,TestWords/MO_PU_DAY.wav,,5a9e9fc46219a30001f54994,63,2021-03-25_06h10.17.115,CombinedMST_OA,2020.2.10,MacIntel,60,,,,,,,,,,,,,,,,,,,,,,,,,,,,,,,,,,,,,,,,,,,,,,,,,,,,,,,,,,,,,,,1,0,1.169935,0,95,95,95,1,2,NEW,SIMILAR,F,,,,,,,,,,,,,,,,,,,,,,,,,,,,,,,,,,,,,,
,,,,,,,,,,,,TestWords/LA_ZAY_CHAI.wav,,5a9e9fc46219a30001f54994,63,2021-03-25_06h10.17.115,CombinedMST_OA,2020.2.10,MacIntel,60,,,,,,,,,,,,,,,,,,,,,,,,,,,,,,,,,,,,,,,,,,,,,,,,,,,,,,,,,,,,,,,2,1,0.87408,0,96,96,96,1,2,NEW,NEW,F,,,,,,,,,,,,,,,,,,,,,,,,,,,,,,,,,,,,,,
,,,,,,,,,,,,TestWords/GA_MU_ZI.wav,,5a9e9fc46219a30001f54994,63,2021-03-25_06h10.17.115,CombinedMST_OA,2020.2.10,MacIntel,60,,,,,,,,,,,,,,,,,,,,,,,,,,,,,,,,,,,,,,,,,,,,,,,,,,,,,,,,,,,,,,,1,1,0.13523,0,97,97,97,1,1,OLD,OLD,F,,,,,,,,,,,,,,,,,,,,,,,,,,,,,,,,,,,,,,
,,,,,,,,,,,,TestWords/ZO_FU_RAI.wav,,5a9e9fc46219a30001f54994,63,2021-03-25_06h10.17.115,CombinedMST_OA,2020.2.10,MacIntel,60,,,,,,,,,,,,,,,,,,,,,,,,,,,,,,,,,,,,,,,,,,,,,,,,,,,,,,,,,,,,,,,1,0,0.256365,0,98,98,98,1,2,NEW,SIMILAR,F,,,,,,,,,,,,,,,,,,,,,,,,,,,,,,,,,,,,,,
,,,,,,,,,,,,TestWords/WAI_RO_JU.wav,,5a9e9fc46219a30001f54994,63,2021-03-25_06h10.17.115,CombinedMST_OA,2020.2.10,MacIntel,60,,,,,,,,,,,,,,,,,,,,,,,,,,,,,,,,,,,,,,,,,,,,,,,,,,,,,,,,,,,,,,,1,0,0.318245,0,99,99,99,1,2,NEW,NEW,F,,,,,,,,,,,,,,,,,,,,,,,,,,,,,,,,,,,,,,
,,,,,,,,,,,,,2,5a9e9fc46219a30001f54994,63,2021-03-25_06h10.17.115,CombinedMST_OA,2020.2.10,MacIntel,60,,,,,,,,,,,,,,,,,,,,,,,,,,,,,,,,,,,,,,,,,,,,,,,,,,,,,,,,,,,SyllableCheck/SU.wav,,,,,,,,,,,,,,,,return,9.38457,red ,space,8.92819,1,0,3.788235,0,0,0,1,1,SU,SO,SU,ZU,,,,,,,,,,,,,,,,,,,,,
,,,,,,,,,,,,,1,5a9e9fc46219a30001f54994,63,2021-03-25_06h10.17.115,CombinedMST_OA,2020.2.10,MacIntel,60,,,,,,,,,,,,,,,,,,,,,,,,,,,,,,,,,,,,,,,,,,,,,,,,,,,,,,,,,,,SyllableCheck/TI.wav,,,,,,,,,,,,,,,,,,,,,1,1,2.169685,0,1,1,0,1,TI,TEE,DEE,SEE,,,,,,,,,,,,,,,,,,,,,
,,,,,,,,,,,,,2,5a9e9fc46219a30001f54994,63,2021-03-25_06h10.17.115,CombinedMST_OA,2020.2.10,MacIntel,60,,,,,,,,,,,,,,,,,,,,,,,,,,,,,,,,,,,,,,,,,,,,,,,,,,,,,,,,,,,SyllableCheck/KAY.wav,,,,,,,,,,,,,,,,,,,,,2,1,1.60564,0,2,2,2,1,KAY,KEE,KAY,HAY,,,,,,,,,,,,,,,,,,,,,
,,,,,,,,,,,,,3,5a9e9fc46219a30001f54994,63,2021-03-25_06h10.17.115,CombinedMST_OA,2020.2.10,MacIntel,60,,,,,,,,,,,,,,,,,,,,,,,,,,,,,,,,,,,,,,,,,,,,,,,,,,,,,,,,,,,SyllableCheck/BA.wav,,,,,,,,,,,,,,,,,,,,,3,1,1.976335,0,3,3,4,1,BA,PA,BEE,BA,,,,,,,,,,,,,,,,,,,,,
,,,,,,,,,,,,,3,5a9e9fc46219a30001f54994,63,2021-03-25_06h10.17.115,CombinedMST_OA,2020.2.10,MacIntel,60,,,,,,,,,,,,,,,,,,,,,,,,,,,,,,,,,,,,,,,,,,,,,,,,,,,,,,,,,,,SyllableCheck/FU.wav,,,,,,,,,,,,,,,,,,,,,2,0,3.670775,0,4,4,3,1,FU,VU,FO,FU,,,,,,,,,,,,,,,,,,,,,
,,,,,,,,,,,,,,5a9e9fc46219a30001f54994,63,2021-03-25_06h10.17.115,CombinedMST_OA,2020.2.10,MacIntel,60,,,,,,,,,,,,,,,,,,,,,,,,,,,,,,,,,,,,,,,,,,,,,,,,,,,,,,,,,,,,,,,,,,,,,,,,,,,,,,,,,,,,,,,,,,,,0,0,0,0,1,,,,,,,,,,,,,,,,
,,,,,,,,,,,,,,5a9e9fc46219a30001f54994,63,2021-03-25_06h10.17.115,CombinedMST_OA,2020.2.10,MacIntel,60,,,,,,,,,,,,,,,,,,,,,,,,,,,,,,,,,,,,,,,,0,1,1,0,1,1,0,,,,,,,,,,,,,,,,,,,,,,,,,,,,,,,,,,,,,,,,,,,,,,,,,,,,,,,,,,,,,,,,,,
,,,,,,,,,,,,,,5a9e9fc46219a30001f54994,63,2021-03-25_06h10.17.115,CombinedMST_OA,2020.2.10,MacIntel,60,,,,,,,,,,,,,,,,,,,,,,,,,,,,,,,,,,,,,,,,,,,,,,,,,,,,,,,,,,,,,,,,,,,,,,,,,,,,,,,,,,,,,,,,,,,,,,,,,space,7.562,space,32.983085,return,14.782535,bird song,0,0,0,31,1,SoundMST/Bird_E.wav,SIMILAR,,
,,,,,,,,,,,,,,5a9e9fc46219a30001f54994,63,2021-03-25_06h10.17.115,CombinedMST_OA,2020.2.10,MacIntel,60,,,,,,,,,,,,,,,,,,,,,,,,,,,,,,,,,,,,,,,,,,,,,,,,,,,,,,,,,,,,,,,,,,,,,,,,,,,,,,,,,,,,,,,,,,,,,,,,,,,,,return,7.694585, ,0,1,1,22,1,SoundMST/CarStart_F.wav,SIMILAR,,
,,,,,,,,,,,,,,5a9e9fc46219a30001f54994,63,2021-03-25_06h10.17.115,CombinedMST_OA,2020.2.10,MacIntel,60,,,,,,,,,,,,,,,,,,,,,,,,,,,,,,,,,,,,,,,,,,,,,,,,,,,,,,,,,,,,,,,,,,,,,,,,,,,,,,,,,,,,,,,,,,,,,,,,,,,,,return,14.06249, ice in glass,0,2,2,57,1,SoundMST/IceDrop.wav,SAME,,
,,,,,,,,,,,,,,5a9e9fc46219a30001f54994,63,2021-03-25_06h10.17.115,CombinedMST_OA,2020.2.10,MacIntel,60,,,,,,,,,,,,,,,,,,,,,,,,,,,,,,,,,,,,,,,,,,,,,,,,,,,,,,,,,,,,,,,,,,,,,,,,,,,,,,,,,,,,,,,,,,,,,,,,,,,,,return,11.01037, car starting,0,3,3,46,1,SoundMST/CarStart_E.wav,SIMILAR,,
,,,,,,,,,,,,,,5a9e9fc46219a30001f54994,63,2021-03-25_06h10.17.115,CombinedMST_OA,2020.2.10,MacIntel,60,,,,,,,,,,,,,,,,,,,,,,,,,,,,,,,,,,,,,,,,,,,,,,,,,,,,,,,,,,,,,,,,,,,,,,,,,,,,,,,,,,,,,,,,,,,,,,,,,,,,,return,15.1007, aeroplane overhead,0,4,4,62,1,SoundMST/Airplane_B.wav,SAME,,
,,,,,,,,,,,,,,5a9e9fc46219a30001f54994,63,2021-03-25_06h10.17.115,CombinedMST_OA,2020.2.10,MacIntel,60,,,,,,,,,,,,,,,,,,,,,,,,,,,,,,,,,,,,,,,,,,,,,,,,,,,,,,,,,,,,,,,,,,,,,,,,,,,,,,,,,,,,,,,,,,,,,,,,,,,,,return,14.480635, sipping noise,0,5,5,12,1,SoundMST/Chomp_C.wav,SIMILAR,,
,,,,,,,,,,,,,,5a9e9fc46219a30001f54994,63,2021-03-25_06h10.17.115,CombinedMST_OA,2020.2.10,MacIntel,60,,,,,,,,,,,,,,,,,,,,,,,,,,,,,,,,,,,,,,,,,,,,,,,,,,,,,,,,,,,,,,,,,,,,,,,,,,,,,,,,,,,,,,,,,,,,,,,,,,,,,return,8.3073, water bubbling,0,6,6,45,1,SoundMST/Bubbles_A.wav,SIMILAR,,
,,,,,,,,,,,,,,5a9e9fc46219a30001f54994,63,2021-03-25_06h10.17.115,CombinedMST_OA,2020.2.10,MacIntel,60,,,,,,,,,,,,,,,,,,,,,,,,,,,,,,,,,,,,,,,,,,,,,,,,,,,,,,,,,,,,,,,,,,,,,,,,,,,,,,,,,,,,,,,,,,,,,,,,,,,,,return,10.86023,sleigh bells,0,7,7,50,1,SoundMST/Sleighbells_B.wav,SAME,,
,,,,,,,,,,,,,,5a9e9fc46219a30001f54994,63,2021-03-25_06h10.17.115,CombinedMST_OA,2020.2.10,MacIntel,60,,,,,,,,,,,,,,,,,,,,,,,,,,,,,,,,,,,,,,,,,,,,,,,,,,,,,,,,,,,,,,,,,,,,,,,,,,,,,,,,,,,,,,,,,,,,,,,,,,,,,return,9.091295, ripping cloth,0,8,8,81,1,SoundMST/PaperRip.wav,SAME,,
,,,,,,,,,,,,,,5a9e9fc46219a30001f54994,63,2021-03-25_06h10.17.115,CombinedMST_OA,2020.2.10,MacIntel,60,,,,,,,,,,,,,,,,,,,,,,,,,,,,,,,,,,,,,,,,,,,,,,,,,,,,,,,,,,,,,,,,,,,,,,,,,,,,,,,,,,,,,,,,,,,,,,,,,,,,,return,12.69602, trumpet playing,0,9,9,63,1,SoundMST/Trumpet_B.wav,SAME,,
,,,,,,,,,,,,,,5a9e9fc46219a30001f54994,63,2021-03-25_06h10.17.115,CombinedMST_OA,2020.2.10,MacIntel,60,,,,,,,,,,,,,,,,,,,,,,,,,,,,,,,,,,,,,,,,,,,,,,,,,,,,,,,,,,,,,,,,,,,,,,,,,,,,,,,,,,,,,,,,,,,,,,,,,,,,,return,7.726565, dog bark,0,10,10,41,1,SoundMST/Dog_H.wav,SIMILAR,,
,,,,,,,,,,,,,,5a9e9fc46219a30001f54994,63,2021-03-25_06h10.17.115,CombinedMST_OA,2020.2.10,MacIntel,60,,,,,,,,,,,,,,,,,,,,,,,,,,,,,,,,,,,,,,,,,,,,,,,,,,,,,,,,,,,,,,,,,,,,,,,,,,,,,,,,,,,,,,,,,,,,,,,,,,,,,return,13.02936, climbing stairs,0,11,11,40,1,SoundMST/Footsteps_C.wav,SIMILAR,,
,,,,,,,,,,,,,,5a9e9fc46219a30001f54994,63,2021-03-25_06h10.17.115,CombinedMST_OA,2020.2.10,MacIntel,60,,,,,,,,,,,,,,,,,,,,,,,,,,,,,,,,,,,,,,,,,,,,,,,,,,,,,,,,,,,,,,,,,,,,,,,,,,,,,,,,,,,,,,,,,,,,,,,,,,,,,return,11.92779, duck quacking,0,12,12,32,1,SoundMST/Duck_C.wav,SIMILAR,,
,,,,,,,,,,,,,,5a9e9fc46219a30001f54994,63,2021-03-25_06h10.17.115,CombinedMST_OA,2020.2.10,MacIntel,60,,,,,,,,,,,,,,,,,,,,,,,,,,,,,,,,,,,,,,,,,,,,,,,,,,,,,,,,,,,,,,,,,,,,,,,,,,,,,,,,,,,,,,,,,,,,,,,,,,,,,return,12.44722, piano playing,0,13,13,77,1,SoundMST/Piano_D.wav,SAME,,
,,,,,,,,,,,,,,5a9e9fc46219a30001f54994,63,2021-03-25_06h10.17.115,CombinedMST_OA,2020.2.10,MacIntel,60,,,,,,,,,,,,,,,,,,,,,,,,,,,,,,,,,,,,,,,,,,,,,,,,,,,,,,,,,,,,,,,,,,,,,,,,,,,,,,,,,,,,,,,,,,,,,,,,,,,,,return,8.47314, cow mooing,0,14,14,71,1,SoundMST/Cow.wav,SAME,,
,,,,,,,,,,,,,,5a9e9fc46219a30001f54994,63,2021-03-25_06h10.17.115,CombinedMST_OA,2020.2.10,MacIntel,60,,,,,,,,,,,,,,,,,,,,,,,,,,,,,,,,,,,,,,,,,,,,,,,,,,,,,,,,,,,,,,,,,,,,,,,,,,,,,,,,,,,,,,,,,,,,,,,,,,,,,return,21.054685, camera shutter,0,15,15,84,1,SoundMST/Camera.wav,SAME,,
,,,,,,,,,,,,,,5a9e9fc46219a30001f54994,63,2021-03-25_06h10.17.115,CombinedMST_OA,2020.2.10,MacIntel,60,,,,,,,,,,,,,,,,,,,,,,,,,,,,,,,,,,,,,,,,,,,,,,,,,,,,,,,,,,,,,,,,,,,,,,,,,,,,,,,,,,,,,,,,,,,,,,,,,,,,,return,7.873415, heart beat,0,16,16,56,1,SoundMST/Heartbeat.wav,SAME,,
,,,,,,,,,,,,,,5a9e9fc46219a30001f54994,63,2021-03-25_06h10.17.115,CombinedMST_OA,2020.2.10,MacIntel,60,,,,,,,,,,,,,,,,,,,,,,,,,,,,,,,,,,,,,,,,,,,,,,,,,,,,,,,,,,,,,,,,,,,,,,,,,,,,,,,,,,,,,,,,,,,,,,,,,,,,,return,15.115865, chalk on board,0,17,17,27,1,SoundMST/Writing_A.wav,SIMILAR,,
,,,,,,,,,,,,,,5a9e9fc46219a30001f54994,63,2021-03-25_06h10.17.115,CombinedMST_OA,2020.2.10,MacIntel,60,,,,,,,,,,,,,,,,,,,,,,,,,,,,,,,,,,,,,,,,,,,,,,,,,,,,,,,,,,,,,,,,,,,,,,,,,,,,,,,,,,,,,,,,,,,,,,,,,,,,,return,10.97611, telephone ring,0,18,18,13,1,SoundMST/Phone_E.wav,SIMILAR,,
,,,,,,,,,,,,,,5a9e9fc46219a30001f54994,63,2021-03-25_06h10.17.115,CombinedMST_OA,2020.2.10,MacIntel,60,,,,,,,,,,,,,,,,,,,,,,,,,,,,,,,,,,,,,,,,,,,,,,,,,,,,,,,,,,,,,,,,,,,,,,,,,,,,,,,,,,,,,,,,,,,,,,,,,,,,,return,10.59265, church bell,0,19,19,2,1,SoundMST/Chime_A.wav,SIMILAR,,
,,,,,,,,,,,,,,5a9e9fc46219a30001f54994,63,2021-03-25_06h10.17.115,CombinedMST_OA,2020.2.10,MacIntel,60,,,,,,,,,,,,,,,,,,,,,,,,,,,,,,,,,,,,,,,,,,,,,,,,,,,,,,,,,,,,,,,,,,,,,,,,,,,,,,,,,,,,,,,,,,,,,,,,,,,,,return,12.145005, goat bleating,0,20,20,44,1,SoundMST/Goat_B.wav,SIMILAR,,
,,,,,,,,,,,,,,5a9e9fc46219a30001f54994,63,2021-03-25_06h10.17.115,CombinedMST_OA,2020.2.10,MacIntel,60,,,,,,,,,,,,,,,,,,,,,,,,,,,,,,,,,,,,,,,,,,,,,,,,,,,,,,,,,,,,,,,,,,,,,,,,,,,,,,,,,,,,,,,,,,,,,,,,,,,,,return,10.911265, tiger roar,0,21,21,19,1,SoundMST/Growl_H.wav,SIMILAR,,
,,,,,,,,,,,,,,5a9e9fc46219a30001f54994,63,2021-03-25_06h10.17.115,CombinedMST_OA,2020.2.10,MacIntel,60,,,,,,,,,,,,,,,,,,,,,,,,,,,,,,,,,,,,,,,,,,,,,,,,,,,,,,,,,,,,,,,,,,,,,,,,,,,,,,,,,,,,,,,,,,,,,,,,,,,,,return,7.12267, dog bark,0,22,22,17,1,SoundMST/Dog_F.wav,SIMILAR,,
,,,,,,,,,,,,,,5a9e9fc46219a30001f54994,63,2021-03-25_06h10.17.115,CombinedMST_OA,2020.2.10,MacIntel,60,,,,,,,,,,,,,,,,,,,,,,,,,,,,,,,,,,,,,,,,,,,,,,,,,,,,,,,,,,,,,,,,,,,,,,,,,,,,,,,,,,,,,,,,,,,,,,,,,,,,,return,10.399005, wood falling,0,23,23,72,1,SoundMST/Bowlingpins.wav,SAME,,
,,,,,,,,,,,,,,5a9e9fc46219a30001f54994,63,2021-03-25_06h10.17.115,CombinedMST_OA,2020.2.10,MacIntel,60,,,,,,,,,,,,,,,,,,,,,,,,,,,,,,,,,,,,,,,,,,,,,,,,,,,,,,,,,,,,,,,,,,,,,,,,,,,,,,,,,,,,,,,,,,,,,,,,,,,,,return,13.853195, crunching crisps,0,24,24,36,1,SoundMST/Chomp_A.wav,SIMILAR,,
,,,,,,,,,,,,,,5a9e9fc46219a30001f54994,63,2021-03-25_06h10.17.115,CombinedMST_OA,2020.2.10,MacIntel,60,,,,,,,,,,,,,,,,,,,,,,,,,,,,,,,,,,,,,,,,,,,,,,,,,,,,,,,,,,,,,,,,,,,,,,,,,,,,,,,,,,,,,,,,,,,,,,,,,,,,,return,7.869605, artic wind,0,25,25,55,1,SoundMST/Wind_B.wav,SAME,,
,,,,,,,,,,,,,,5a9e9fc46219a30001f54994,63,2021-03-25_06h10.17.115,CombinedMST_OA,2020.2.10,MacIntel,60,,,,,,,,,,,,,,,,,,,,,,,,,,,,,,,,,,,,,,,,,,,,,,,,,,,,,,,,,,,,,,,,,,,,,,,,,,,,,,,,,,,,,,,,,,,,,,,,,,,,,return,9.74089, sneeze,0,26,26,64,1,SoundMST/Sneeze_B.wav,SAME,,
,,,,,,,,,,,,,,5a9e9fc46219a30001f54994,63,2021-03-25_06h10.17.115,CombinedMST_OA,2020.2.10,MacIntel,60,,,,,,,,,,,,,,,,,,,,,,,,,,,,,,,,,,,,,,,,,,,,,,,,,,,,,,,,,,,,,,,,,,,,,,,,,,,,,,,,,,,,,,,,,,,,,,,,,,,,,return,20.343075, crow crocking,0,27,27,15,1,SoundMST/Crow_A.wav,SIMILAR,,
,,,,,,,,,,,,,,5a9e9fc46219a30001f54994,63,2021-03-25_06h10.17.115,CombinedMST_OA,2020.2.10,MacIntel,60,,,,,,,,,,,,,,,,,,,,,,,,,,,,,,,,,,,,,,,,,,,,,,,,,,,,,,,,,,,,,,,,,,,,,,,,,,,,,,,,,,,,,,,,,,,,,,,,,,,,,return,13.3477, frog croaking,0,28,28,73,1,SoundMST/Bullfrog.wav,SAME,,
,,,,,,,,,,,,,,5a9e9fc46219a30001f54994,63,2021-03-25_06h10.17.115,CombinedMST_OA,2020.2.10,MacIntel,60,,,,,,,,,,,,,,,,,,,,,,,,,,,,,,,,,,,,,,,,,,,,,,,,,,,,,,,,,,,,,,,,,,,,,,,,,,,,,,,,,,,,,,,,,,,,,,,,,,,,,return,8.721715, pouring water,0,29,29,1,1,SoundMST/Pour_C.wav,SIMILAR,,
,,,,,,,,,,,,,,5a9e9fc46219a30001f54994,63,2021-03-25_06h10.17.115,CombinedMST_OA,2020.2.10,MacIntel,60,,,,,,,,,,,,,,,,,,,,,,,,,,,,,,,,,,,,,,,,,,,,,,,,,,,,,,,,,,,,,,,,,,,,,,,,,,,,,,,,,,,,,,,,,,,,,,,,,,,,,return,10.56705, goat bleating,0,30,30,20,1,SoundMST/Goat_C.wav,SIMILAR,,
,,,,,,,,,,,,,,5a9e9fc46219a30001f54994,63,2021-03-25_06h10.17.115,CombinedMST_OA,2020.2.10,MacIntel,60,,,,,,,,,,,,,,,,,,,,,,,,,,,,,,,,,,,,,,,,,,,,,,,,,,,,,,,,,,,,,,,,,,,,,,,,,,,,,,,,,,,,,,,,,,,,,,,,,,,,,return,15.613465, water in shower,0,31,31,5,1,SoundMST/Faucet_C.wav,SIMILAR,,
,,,,,,,,,,,,,,5a9e9fc46219a30001f54994,63,2021-03-25_06h10.17.115,CombinedMST_OA,2020.2.10,MacIntel,60,,,,,,,,,,,,,,,,,,,,,,,,,,,,,,,,,,,,,,,,,,,,,,,,,,,,,,,,,,,,,,,,,,,,,,,,,,,,,,,,,,,,,,,,,,,,,,,,,,,,,return,7.672915, snoring,0,32,32,34,1,SoundMST/Snore_D.wav,SIMILAR,,
,,,,,,,,,,,,,,5a9e9fc46219a30001f54994,63,2021-03-25_06h10.17.115,CombinedMST_OA,2020.2.10,MacIntel,60,,,,,,,,,,,,,,,,,,,,,,,,,,,,,,,,,,,,,,,,,,,,,,,,,,,,,,,,,,,,,,,,,,,,,,,,,,,,,,,,,,,,,,,,,,,,,,,,,,,,,return,8.940865, water bubbling,0,33,33,21,1,SoundMST/Bubbles_B.wav,SIMILAR,,
,,,,,,,,,,,,,,5a9e9fc46219a30001f54994,63,2021-03-25_06h10.17.115,CombinedMST_OA,2020.2.10,MacIntel,60,,,,,,,,,,,,,,,,,,,,,,,,,,,,,,,,,,,,,,,,,,,,,,,,,,,,,,,,,,,,,,,,,,,,,,,,,,,,,,,,,,,,,,,,,,,,,,,,,,,,,return,11.49867, plucking guitar,0,34,34,59,1,SoundMST/Guitar_B.wav,SAME,,
,,,,,,,,,,,,,,5a9e9fc46219a30001f54994,63,2021-03-25_06h10.17.115,CombinedMST_OA,2020.2.10,MacIntel,60,,,,,,,,,,,,,,,,,,,,,,,,,,,,,,,,,,,,,,,,,,,,,,,,,,,,,,,,,,,,,,,,,,,,,,,,,,,,,,,,,,,,,,,,,,,,,,,,,,,,,return,9.491065, duck quacking,0,35,35,8,1,SoundMST/Duck_D.wav,SIMILAR,,
,,,,,,,,,,,,,,5a9e9fc46219a30001f54994,63,2021-03-25_06h10.17.115,CombinedMST_OA,2020.2.10,MacIntel,60,,,,,,,,,,,,,,,,,,,,,,,,,,,,,,,,,,,,,,,,,,,,,,,,,,,,,,,,,,,,,,,,,,,,,,,,,,,,,,,,,,,,,,,,,,,,,,,,,,,,,return,10.460135, whistle blowing,0,36,36,35,1,SoundMST/Whistle_B.wav,SIMILAR,,
,,,,,,,,,,,,,,5a9e9fc46219a30001f54994,63,2021-03-25_06h10.17.115,CombinedMST_OA,2020.2.10,MacIntel,60,,,,,,,,,,,,,,,,,,,,,,,,,,,,,,,,,,,,,,,,,,,,,,,,,,,,,,,,,,,,,,,,,,,,,,,,,,,,,,,,,,,,,,,,,,,,,,,,,,,,,return,11.946145, person whistling,0,37,37,67,1,SoundMST/ManWhistle.wav,SAME,,
,,,,,,,,,,,,,,5a9e9fc46219a30001f54994,63,2021-03-25_06h10.17.115,CombinedMST_OA,2020.2.10,MacIntel,60,,,,,,,,,,,,,,,,,,,,,,,,,,,,,,,,,,,,,,,,,,,,,,,,,,,,,,,,,,,,,,,,,,,,,,,,,,,,,,,,,,,,,,,,,,,,,,,,,,,,,return,11.50956, flock of birds,0,38,38,78,1,SoundMST/Fireworks.wav,SAME,,
,,,,,,,,,,,,,,5a9e9fc46219a30001f54994,63,2021-03-25_06h10.17.115,CombinedMST_OA,2020.2.10,MacIntel,60,,,,,,,,,,,,,,,,,,,,,,,,,,,,,,,,,,,,,,,,,,,,,,,,,,,,,,,,,,,,,,,,,,,,,,,,,,,,,,,,,,,,,,,,,,,,,,,,,,,,,return,8.107415, lion roar,0,39,39,43,1,SoundMST/Growl_G.wav,SIMILAR,,
,,,,,,,,,,,,,,5a9e9fc46219a30001f54994,63,2021-03-25_06h10.17.115,CombinedMST_OA,2020.2.10,MacIntel,60,,,,,,,,,,,,,,,,,,,,,,,,,,,,,,,,,,,,,,,,,,,,,,,,,,,,,,,,,,,,,,,,,,,,,,,,,,,,,,,,,,,,,,,,,,,,,,,,,,,,,return,16.566865, telephone tone,0,40,40,54,1,SoundMST/DialTone.wav,SAME,,
,,,,,,,,,,,,,,5a9e9fc46219a30001f54994,63,2021-03-25_06h10.17.115,CombinedMST_OA,2020.2.10,MacIntel,60,,,,,,,,,,,,,,,,,,,,,,,,,,,,,,,,,,,,,,,,,,,,,,,,,,,,,,,,,,,,,,,,,,,,,,,,,,,,,,,,,,,,,,,,,,,,,,,,,,,,,return,9.548385, footsteps,0,41,41,16,1,SoundMST/Footsteps_F.wav,SIMILAR,,
,,,,,,,,,,,,,,5a9e9fc46219a30001f54994,63,2021-03-25_06h10.17.115,CombinedMST_OA,2020.2.10,MacIntel,60,,,,,,,,,,,,,,,,,,,,,,,,,,,,,,,,,,,,,,,,,,,,,,,,,,,,,,,,,,,,,,,,,,,,,,,,,,,,,,,,,,,,,,,,,,,,,,,,,,,,,return,8.155565, church bell,0,42,42,26,1,SoundMST/Chime_B.wav,SIMILAR,,
,,,,,,,,,,,,,,5a9e9fc46219a30001f54994,63,2021-03-25_06h10.17.115,CombinedMST_OA,2020.2.10,MacIntel,60,,,,,,,,,,,,,,,,,,,,,,,,,,,,,,,,,,,,,,,,,,,,,,,,,,,,,,,,,,,,,,,,,,,,,,,,,,,,,,,,,,,,,,,,,,,,,,,,,,,,,return,8.25972, hairdryer,0,43,43,74,1,SoundMST/HairDryer_A.wav,SAME,,
,,,,,,,,,,,,,,5a9e9fc46219a30001f54994,63,2021-03-25_06h10.17.115,CombinedMST_OA,2020.2.10,MacIntel,60,,,,,,,,,,,,,,,,,,,,,,,,,,,,,,,,,,,,,,,,,,,,,,,,,,,,,,,,,,,,,,,,,,,,,,,,,,,,,,,,,,,,,,,,,,,,,,,,,,,,,return,9.798575, people clapping,0,44,44,47,1,SoundMST/Clap_B.wav,SIMILAR,,
,,,,,,,,,,,,,,5a9e9fc46219a30001f54994,63,2021-03-25_06h10.17.115,CombinedMST_OA,2020.2.10,MacIntel,60,,,,,,,,,,,,,,,,,,,,,,,,,,,,,,,,,,,,,,,,,,,,,,,,,,,,,,,,,,,,,,,,,,,,,,,,,,,,,,,,,,,,,,,,,,,,,,,,,,,,,return,11.434285, people laughing,0,45,45,9,1,SoundMST/Laugh_D.wav,SIMILAR,,
,,,,,,,,,,,,,,5a9e9fc46219a30001f54994,63,2021-03-25_06h10.17.115,CombinedMST_OA,2020.2.10,MacIntel,60,,,,,,,,,,,,,,,,,,,,,,,,,,,,,,,,,,,,,,,,,,,,,,,,,,,,,,,,,,,,,,,,,,,,,,,,,,,,,,,,,,,,,,,,,,,,,,,,,,,,,return,12.328085, telephone ringing,0,46,46,37,1,SoundMST/Phone_D.wav,SIMILAR,,
,,,,,,,,,,,,,,5a9e9fc46219a30001f54994,63,2021-03-25_06h10.17.115,CombinedMST_OA,2020.2.10,MacIntel,60,,,,,,,,,,,,,,,,,,,,,,,,,,,,,,,,,,,,,,,,,,,,,,,,,,,,,,,,,,,,,,,,,,,,,,,,,,,,,,,,,,,,,,,,,,,,,,,,,,,,,return,12.71716, police siren,0,47,47,14,1,SoundMST/Siren_A.wav,SIMILAR,,
,,,,,,,,,,,,,,5a9e9fc46219a30001f54994,63,2021-03-25_06h10.17.115,CombinedMST_OA,2020.2.10,MacIntel,60,,,,,,,,,,,,,,,,,,,,,,,,,,,,,,,,,,,,,,,,,,,,,,,,,,,,,,,,,,,,,,,,,,,,,,,,,,,,,,,,,,,,,,,,,,,,,,,,,,,,,return,10.90822, mobile vibrate,0,48,48,52,1,SoundMST/Buzz.wav,SAME,,
,,,,,,,,,,,,,,5a9e9fc46219a30001f54994,63,2021-03-25_06h10.17.115,CombinedMST_OA,2020.2.10,MacIntel,60,,,,,,,,,,,,,,,,,,,,,,,,,,,,,,,,,,,,,,,,,,,,,,,,,,,,,,,,,,,,,,,,,,,,,,,,,,,,,,,,,,,,,,,,,,,,,,,,,,,,,return,10.748195, bird song,0,49,49,7,1,SoundMST/Bird_A.wav,SIMILAR,,
,,,,,,,,,,,,,,5a9e9fc46219a30001f54994,63,2021-03-25_06h10.17.115,CombinedMST_OA,2020.2.10,MacIntel,60,,,,,,,,,,,,,,,,,,,,,,,,,,,,,,,,,,,,,,,,,,,,,,,,,,,,,,,,,,,,,,,,,,,,,,,,,,,,,,,,,,,,,,,,,,,,,,,,,,,,,return,13.060835, chicken clucking,0,50,50,60,1,SoundMST/Chicken_A.wav,SAME,,
,,,,,,,,,,,,,,5a9e9fc46219a30001f54994,63,2021-03-25_06h10.17.115,CombinedMST_OA,2020.2.10,MacIntel,60,,,,,,,,,,,,,,,,,,,,,,,,,,,,,,,,,,,,,,,,,,,,,,,,,,,,,,,,,,,,,,,,,,,,,,,,,,,,,,,,,,,,,,,,,,,,,,,,,,,,,return,9.695375, cat meow,0,51,51,65,1,SoundMST/Cat_A.wav,SAME,,
,,,,,,,,,,,,,,5a9e9fc46219a30001f54994,63,2021-03-25_06h10.17.115,CombinedMST_OA,2020.2.10,MacIntel,60,,,,,,,,,,,,,,,,,,,,,,,,,,,,,,,,,,,,,,,,,,,,,,,,,,,,,,,,,,,,,,,,,,,,,,,,,,,,,,,,,,,,,,,,,,,,,,,,,,,,,return,13.100115, elephant trumping,0,52,52,24,1,SoundMST/Elephant_C.wav,SIMILAR,,
,,,,,,,,,,,,,,5a9e9fc46219a30001f54994,63,2021-03-25_06h10.17.115,CombinedMST_OA,2020.2.10,MacIntel,60,,,,,,,,,,,,,,,,,,,,,,,,,,,,,,,,,,,,,,,,,,,,,,,,,,,,,,,,,,,,,,,,,,,,,,,,,,,,,,,,,,,,,,,,,,,,,,,,,,,,,return,8.87326, cello playing,0,53,53,61,1,SoundMST/Cello.wav,SAME,,
,,,,,,,,,,,,,,5a9e9fc46219a30001f54994,63,2021-03-25_06h10.17.115,CombinedMST_OA,2020.2.10,MacIntel,60,,,,,,,,,,,,,,,,,,,,,,,,,,,,,,,,,,,,,,,,,,,,,,,,,,,,,,,,,,,,,,,,,,,,,,,,,,,,,,,,,,,,,,,,,,,,,,,,,,,,,return,13.08421, bee noise,0,54,54,53,1,SoundMST/Mosquito_B.wav,SAME,,
,,,,,,,,,,,,,,5a9e9fc46219a30001f54994,63,2021-03-25_06h10.17.115,CombinedMST_OA,2020.2.10,MacIntel,60,,,,,,,,,,,,,,,,,,,,,,,,,,,,,,,,,,,,,,,,,,,,,,,,,,,,,,,,,,,,,,,,,,,,,,,,,,,,,,,,,,,,,,,,,,,,,,,,,,,,,return,10.43275, baby gurgling,0,55,55,4,1,SoundMST/Baby_E.wav,SIMILAR,,
,,,,,,,,,,,,,,5a9e9fc46219a30001f54994,63,2021-03-25_06h10.17.115,CombinedMST_OA,2020.2.10,MacIntel,60,,,,,,,,,,,,,,,,,,,,,,,,,,,,,,,,,,,,,,,,,,,,,,,,,,,,,,,,,,,,,,,,,,,,,,,,,,,,,,,,,,,,,,,,,,,,,,,,,,,,,return,10.23056, toilet flush,0,56,56,51,1,SoundMST/Toilet_B.wav,SAME,,
,,,,,,,,,,,,,,5a9e9fc46219a30001f54994,63,2021-03-25_06h10.17.115,CombinedMST_OA,2020.2.10,MacIntel,60,,,,,,,,,,,,,,,,,,,,,,,,,,,,,,,,,,,,,,,,,,,,,,,,,,,,,,,,,,,,,,,,,,,,,,,,,,,,,,,,,,,,,,,,,,,,,,,,,,,,,return,8.1401, man snoring,0,57,57,10,1,SoundMST/Snore_E.wav,SIMILAR,,
,,,,,,,,,,,,,,5a9e9fc46219a30001f54994,63,2021-03-25_06h10.17.115,CombinedMST_OA,2020.2.10,MacIntel,60,,,,,,,,,,,,,,,,,,,,,,,,,,,,,,,,,,,,,,,,,,,,,,,,,,,,,,,,,,,,,,,,,,,,,,,,,,,,,,,,,,,,,,,,,,,,,,,,,,,,,return,8.3587, bagpipes,0,58,58,69,1,SoundMST/Bagpipe.wav,SAME,,
,,,,,,,,,,,,,,5a9e9fc46219a30001f54994,63,2021-03-25_06h10.17.115,CombinedMST_OA,2020.2.10,MacIntel,60,,,,,,,,,,,,,,,,,,,,,,,,,,,,,,,,,,,,,,,,,,,,,,,,,,,,,,,,,,,,,,,,,,,,,,,,,,,,,,,,,,,,,,,,,,,,,,,,,,,,,return,18.00509, donkey braying,0,59,59,87,1,SoundMST/Donkey.wav,SAME,,
,,,,,,,,,,,,,,5a9e9fc46219a30001f54994,63,2021-03-25_06h10.17.115,CombinedMST_OA,2020.2.10,MacIntel,60,,,,,,,,,,,,,,,,,,,,,,,,,,,,,,,,,,,,,,,,,,,,,,,,,,,,,,,,,,,,,,,,,,,,,,,,,,,,,,,,,,,,,,,,,,,,,,,,,,,,,return,14.200705, crow squawking,0,60,60,39,1,SoundMST/Crow_B.wav,SIMILAR,,
,,,,,,,,,,,,,,5a9e9fc46219a30001f54994,63,2021-03-25_06h10.17.115,CombinedMST_OA,2020.2.10,MacIntel,60,,,,,,,,,,,,,,,,,,,,,,,,,,,,,,,,,,,,,,,,,,,,,,,,,,,,,,,,,,,,,,,,,,,,,,,,,,,,,,,,,,,,,,,,,,,,,,,,,,,,,return,7.47232, ice in glass,0,61,61,68,1,SoundMST/Cup.wav,SAME,,
,,,,,,,,,,,,,,5a9e9fc46219a30001f54994,63,2021-03-25_06h10.17.115,CombinedMST_OA,2020.2.10,MacIntel,60,,,,,,,,,,,,,,,,,,,,,,,,,,,,,,,,,,,,,,,,,,,,,,,,,,,,,,,,,,,,,,,,,,,,,,,,,,,,,,,,,,,,,,,,,,,,,,,,,,,,,return,11.76233, locomotive whistle,0,62,62,86,1,SoundMST/Steam.wav,SAME,,
,,,,,,,,,,,,,,5a9e9fc46219a30001f54994,63,2021-03-25_06h10.17.115,CombinedMST_OA,2020.2.10,MacIntel,60,,,,,,,,,,,,,,,,,,,,,,,,,,,,,,,,,,,,,,,,,,,,,,,,,,,,,,,,,,,,,,,,,,,,,,,,,,,,,,,,,,,,,,,,,,,,,,,,,,,,,return,10.075675, train passing,0,63,63,48,1,SoundMST/Thunder_A.wav,SAME,,
,,,,,,,,,,,,,,5a9e9fc46219a30001f54994,63,2021-03-25_06h10.17.115,CombinedMST_OA,2020.2.10,MacIntel,60,,,,,,,,,,,,,,,,,,,,,,,,,,,,,,,,,,,,,,,,,,,,,,,,,,,,,,,,,,,,,,,,,,,,,,,,,,,,,,,,,,,,,,,,,,,,,,,,,,,,,return,8.598795, coughing,0,64,64,6,1,SoundMST/Cough_F.wav,SIMILAR,,
,,,,,,,,,,,,,,5a9e9fc46219a30001f54994,63,2021-03-25_06h10.17.115,CombinedMST_OA,2020.2.10,MacIntel,60,,,,,,,,,,,,,,,,,,,,,,,,,,,,,,,,,,,,,,,,,,,,,,,,,,,,,,,,,,,,,,,,,,,,,,,,,,,,,,,,,,,,,,,,,,,,,,,,,,,,,return,8.78168, coughing,0,65,65,30,1,SoundMST/Cough_D.wav,SIMILAR,,
,,,,,,,,,,,,,,5a9e9fc46219a30001f54994,63,2021-03-25_06h10.17.115,CombinedMST_OA,2020.2.10,MacIntel,60,,,,,,,,,,,,,,,,,,,,,,,,,,,,,,,,,,,,,,,,,,,,,,,,,,,,,,,,,,,,,,,,,,,,,,,,,,,,,,,,,,,,,,,,,,,,,,,,,,,,,return,10.56, baby gurgling,0,66,66,28,1,SoundMST/Baby_F.wav,SIMILAR,,
,,,,,,,,,,,,,,5a9e9fc46219a30001f54994,63,2021-03-25_06h10.17.115,CombinedMST_OA,2020.2.10,MacIntel,60,,,,,,,,,,,,,,,,,,,,,,,,,,,,,,,,,,,,,,,,,,,,,,,,,,,,,,,,,,,,,,,,,,,,,,,,,,,,,,,,,,,,,,,,,,,,,,,,,,,,,return,10.509235, water dripping,0,67,67,85,1,SoundMST/Droplet_B.wav,SAME,,
,,,,,,,,,,,,,,5a9e9fc46219a30001f54994,63,2021-03-25_06h10.17.115,CombinedMST_OA,2020.2.10,MacIntel,60,,,,,,,,,,,,,,,,,,,,,,,,,,,,,,,,,,,,,,,,,,,,,,,,,,,,,,,,,,,,,,,,,,,,,,,,,,,,,,,,,,,,,,,,,,,,,,,,,,,,,return,11.244725, horse neighing,0,68,68,82,1,SoundMST/Horse.wav,SAME,,
,,,,,,,,,,,,,,5a9e9fc46219a30001f54994,63,2021-03-25_06h10.17.115,CombinedMST_OA,2020.2.10,MacIntel,60,,,,,,,,,,,,,,,,,,,,,,,,,,,,,,,,,,,,,,,,,,,,,,,,,,,,,,,,,,,,,,,,,,,,,,,,,,,,,,,,,,,,,,,,,,,,,,,,,,,,,return,9.79195, cuckoo clock,0,69,69,75,1,SoundMST/Cuckoo_A.wav,SAME,,
,,,,,,,,,,,,,,5a9e9fc46219a30001f54994,63,2021-03-25_06h10.17.115,CombinedMST_OA,2020.2.10,MacIntel,60,,,,,,,,,,,,,,,,,,,,,,,,,,,,,,,,,,,,,,,,,,,,,,,,,,,,,,,,,,,,,,,,,,,,,,,,,,,,,,,,,,,,,,,,,,,,,,,,,,,,,return,12.6137, money on a table,0,70,70,42,1,SoundMST/Coin_D.wav,SIMILAR,,
,,,,,,,,,,,,,,5a9e9fc46219a30001f54994,63,2021-03-25_06h10.17.115,CombinedMST_OA,2020.2.10,MacIntel,60,,,,,,,,,,,,,,,,,,,,,,,,,,,,,,,,,,,,,,,,,,,,,,,,,,,,,,,,,,,,,,,,,,,,,,,,,,,,,,,,,,,,,,,,,,,,,,,,,,,,,return,15.08075, elephant trumping,0,71,71,0,1,SoundMST/Elephant_A.wav,SIMILAR,,
,,,,,,,,,,,,,,5a9e9fc46219a30001f54994,63,2021-03-25_06h10.17.115,CombinedMST_OA,2020.2.10,MacIntel,60,,,,,,,,,,,,,,,,,,,,,,,,,,,,,,,,,,,,,,,,,,,,,,,,,,,,,,,,,,,,,,,,,,,,,,,,,,,,,,,,,,,,,,,,,,,,,,,,,,,,,return,7.57415, hammering,0,72,72,76,1,SoundMST/Hammer_A.wav,SAME,,
,,,,,,,,,,,,,,5a9e9fc46219a30001f54994,63,2021-03-25_06h10.17.115,CombinedMST_OA,2020.2.10,MacIntel,60,,,,,,,,,,,,,,,,,,,,,,,,,,,,,,,,,,,,,,,,,,,,,,,,,,,,,,,,,,,,,,,,,,,,,,,,,,,,,,,,,,,,,,,,,,,,,,,,,,,,,return,9.85866, sipping noise,0,73,73,66,1,SoundMST/Slurp.wav,SAME,,
,,,,,,,,,,,,,,5a9e9fc46219a30001f54994,63,2021-03-25_06h10.17.115,CombinedMST_OA,2020.2.10,MacIntel,60,,,,,,,,,,,,,,,,,,,,,,,,,,,,,,,,,,,,,,,,,,,,,,,,,,,,,,,,,,,,,,,,,,,,,,,,,,,,,,,,,,,,,,,,,,,,,,,,,,,,,return,6.90517, coyote,0,74,74,80,1,SoundMST/Howl.wav,SAME,,
,,,,,,,,,,,,,,5a9e9fc46219a30001f54994,63,2021-03-25_06h10.17.115,CombinedMST_OA,2020.2.10,MacIntel,60,,,,,,,,,,,,,,,,,,,,,,,,,,,,,,,,,,,,,,,,,,,,,,,,,,,,,,,,,,,,,,,,,,,,,,,,,,,,,,,,,,,,,,,,,,,,,,,,,,,,,return,7.38804, siren,0,75,75,38,1,SoundMST/Siren_E.wav,SIMILAR,,
,,,,,,,,,,,,,,5a9e9fc46219a30001f54994,63,2021-03-25_06h10.17.115,CombinedMST_OA,2020.2.10,MacIntel,60,,,,,,,,,,,,,,,,,,,,,,,,,,,,,,,,,,,,,,,,,,,,,,,,,,,,,,,,,,,,,,,,,,,,,,,,,,,,,,,,,,,,,,,,,,,,,,,,,,,,,return,11.42622, pouring liquid,0,76,76,25,1,SoundMST/Pour_B.wav,SIMILAR,,
,,,,,,,,,,,,,,5a9e9fc46219a30001f54994,63,2021-03-25_06h10.17.115,CombinedMST_OA,2020.2.10,MacIntel,60,,,,,,,,,,,,,,,,,,,,,,,,,,,,,,,,,,,,,,,,,,,,,,,,,,,,,,,,,,,,,,,,,,,,,,,,,,,,,,,,,,,,,,,,,,,,,,,,,,,,,return,9.726315, squeaky toy,0,77,77,58,1,SoundMST/Puff_A.wav,SAME,,
,,,,,,,,,,,,,,5a9e9fc46219a30001f54994,63,2021-03-25_06h10.17.115,CombinedMST_OA,2020.2.10,MacIntel,60,,,,,,,,,,,,,,,,,,,,,,,,,,,,,,,,,,,,,,,,,,,,,,,,,,,,,,,,,,,,,,,,,,,,,,,,,,,,,,,,,,,,,,,,,,,,,,,,,,,,,return,8.164905, helicopter,0,78,78,79,1,SoundMST/Helicopter_A.wav,SAME,,
,,,,,,,,,,,,,,5a9e9fc46219a30001f54994,63,2021-03-25_06h10.17.115,CombinedMST_OA,2020.2.10,MacIntel,60,,,,,,,,,,,,,,,,,,,,,,,,,,,,,,,,,,,,,,,,,,,,,,,,,,,,,,,,,,,,,,,,,,,,,,,,,,,,,,,,,,,,,,,,,,,,,,,,,,,,,return,7.705105, horn,0,79,79,70,1,SoundMST/Airhorn.wav,SAME,,
,,,,,,,,,,,,,,5a9e9fc46219a30001f54994,63,2021-03-25_06h10.17.115,CombinedMST_OA,2020.2.10,MacIntel,60,,,,,,,,,,,,,,,,,,,,,,,,,,,,,,,,,,,,,,,,,,,,,,,,,,,,,,,,,,,,,,,,,,,,,,,,,,,,,,,,,,,,,,,,,,,,,,,,,,,,,return,16.53248, electronic machine,0,80,80,83,1,SoundMST/Printer.wav,SAME,,
,,,,,,,,,,,,,,5a9e9fc46219a30001f54994,63,2021-03-25_06h10.17.115,CombinedMST_OA,2020.2.10,MacIntel,60,,,,,,,,,,,,,,,,,,,,,,,,,,,,,,,,,,,,,,,,,,,,,,,,,,,,,,,,,,,,,,,,,,,,,,,,,,,,,,,,,,,,,,,,,,,,,,,,,,,,,return,12.262615, money on table,0,81,81,18,1,SoundMST/Coin_E.wav,SIMILAR,,
,,,,,,,,,,,,,,5a9e9fc46219a30001f54994,63,2021-03-25_06h10.17.115,CombinedMST_OA,2020.2.10,MacIntel,60,,,,,,,,,,,,,,,,,,,,,,,,,,,,,,,,,,,,,,,,,,,,,,,,,,,,,,,,,,,,,,,,,,,,,,,,,,,,,,,,,,,,,,,,,,,,,,,,,,,,,return,8.207985, people clapping,0,82,82,23,1,SoundMST/Clap_C.wav,SIMILAR,,
,,,,,,,,,,,,,,5a9e9fc46219a30001f54994,63,2021-03-25_06h10.17.115,CombinedMST_OA,2020.2.10,MacIntel,60,,,,,,,,,,,,,,,,,,,,,,,,,,,,,,,,,,,,,,,,,,,,,,,,,,,,,,,,,,,,,,,,,,,,,,,,,,,,,,,,,,,,,,,,,,,,,,,,,,,,,return,13.86834, whistle blowing,0,83,83,11,1,SoundMST/Whistle_C.wav,SIMILAR,,
,,,,,,,,,,,,,,5a9e9fc46219a30001f54994,63,2021-03-25_06h10.17.115,CombinedMST_OA,2020.2.10,MacIntel,60,,,,,,,,,,,,,,,,,,,,,,,,,,,,,,,,,,,,,,,,,,,,,,,,,,,,,,,,,,,,,,,,,,,,,,,,,,,,,,,,,,,,,,,,,,,,,,,,,,,,,return,13.38132, keyboard strikes,0,84,84,49,1,SoundMST/Typing.wav,SAME,,
,,,,,,,,,,,,,,5a9e9fc46219a30001f54994,63,2021-03-25_06h10.17.115,CombinedMST_OA,2020.2.10,MacIntel,60,,,,,,,,,,,,,,,,,,,,,,,,,,,,,,,,,,,,,,,,,,,,,,,,,,,,,,,,,,,,,,,,,,,,,,,,,,,,,,,,,,,,,,,,,,,,,,,,,,,,,return,9.55567, water tap,0,85,85,29,1,SoundMST/Faucet_A.wav,SIMILAR,,
,,,,,,,,,,,,,,5a9e9fc46219a30001f54994,63,2021-03-25_06h10.17.115,CombinedMST_OA,2020.2.10,MacIntel,60,,,,,,,,,,,,,,,,,,,,,,,,,,,,,,,,,,,,,,,,,,,,,,,,,,,,,,,,,,,,,,,,,,,,,,,,,,,,,,,,,,,,,,,,,,,,,,,,,,,,,return,13.028465, chalk on board,0,86,86,3,1,SoundMST/Writing_C.wav,SIMILAR,,
,,,,,,,,,,,,,,5a9e9fc46219a30001f54994,63,2021-03-25_06h10.17.115,CombinedMST_OA,2020.2.10,MacIntel,60,,,,,,,,,,,,,,,,,,,,,,,,,,,,,,,,,,,,,,,,,,,,,,,,,,,,,,,,,,,,,,,,,,,,,,,,,,,,,,,,,,,,,,,,,,,,,,,,,,,,,return,10.32813, people laughing,0,87,87,33,1,SoundMST/Laugh_A.wav,SIMILAR,,
,,,,,,,,,,,,,,5a9e9fc46219a30001f54994,63,2021-03-25_06h10.17.115,CombinedMST_OA,2020.2.10,MacIntel,60,,,,,,,,,,,,,,,,,,,,,,,,,,,,,,,,,,,,,,,,,,,,,,,,,,,,,,,,,,,,,,,,,,,,,,,,,,,,,,,,,,,,,,,,,,,,,,,,,,,,,,,,,,,,,,,space,26.007245
