VolumeContinueKey.keys,VolumeContinueKey.rt,HeadphoneContinueKey.keys,HeadphoneContinueKey.rt,CheckResp.keys,CheckResp.corr,CheckResp.rt,trials_3.thisRepN,trials_3.thisTrialN,trials_3.thisN,trials_3.thisIndex,trials_3.ran,File,Correct,participant,Age,date,expName,psychopyVersion,OS,frameRate,Welcome0ContKey.keys,Welcome0ContKey.rt,ContinueResp.keys,ContinueResp.rt,Wel2ContinueKey.keys,Wel2ContinueKey.rt,WelcomeContinueKey2.keys,WelcomeContinueKey2.rt,Practice_resp.keys,Practice_resp.corr,Practice_resp.rt,PracticeTrials.thisRepN,PracticeTrials.thisTrialN,PracticeTrials.thisN,PracticeTrials.thisIndex,PracticeTrials.ran,SoundFile,Type,StartTast.keys,StartTast.rt,MST_resp.keys,MST_resp.corr,MST_resp.rt,trials.thisRepN,trials.thisTrialN,trials.thisN,trials.thisIndex,trials.ran,WordCorrect,Correct_type,WordType,Condition,Attn1ContKey.keys,Attn1ContKey.rt,AttnCheckResp.text,SyllblCheckContKey.keys,SyllblCheckContKey.rt,SyllblCheckResp.keys,SyllblCheckResp.corr,SyllblCheckResp.rt,trials_2.thisRepN,trials_2.thisTrialN,trials_2.thisN,trials_2.thisIndex,trials_2.ran,Target,Word1,Word2,Word3,WordTask.thisRepN,WordTask.thisTrialN,WordTask.thisN,WordTask.thisIndex,WordTask.ran,Counterbalance.thisRepN,Counterbalance.thisTrialN,Counterbalance.thisN,Counterbalance.thisIndex,Counterbalance.ran,WordOrder,SoundOrder,key_resp.keys,key_resp.rt,WelcomeSound2ContKey.keys,WelcomeSound2ContKey.rt,PracticeSoundKey.keys,PracticeSoundKey.corr,PracticeSoundKey.rt,SoundPracticeLoop.thisRepN,SoundPracticeLoop.thisTrialN,SoundPracticeLoop.thisN,SoundPracticeLoop.thisIndex,SoundPracticeLoop.ran,SoundMST_File,SoundCorrect,Correct2,SoundType,Trial,MSTSoundStrtKey.keys,MSTSoundStrtKey.rt,MSTSoundKey.keys,MSTSoundKey.corr,MSTSoundKey.rt,MSTSoundLoop.thisRepN,MSTSoundLoop.thisTrialN,MSTSoundLoop.thisN,MSTSoundLoop.thisIndex,MSTSoundLoop.ran,AttnCheck2Keys.keys,AttnCheck2Keys.rt,AttnCheck2Resp.text,SoundTask.thisRepN,SoundTask.thisTrialN,SoundTask.thisN,SoundTask.thisIndex,SoundTask.ran,key_resp_4.keys,key_resp_4.rt,GuessSoundIntro2Cont.keys,GuessSoundIntro2Cont.rt,GSSubmit.keys,GSSubmit.rt,GSResponse.text,GuessSoundLoop.thisRepN,GuessSoundLoop.thisTrialN,GuessSoundLoop.thisN,GuessSoundLoop.thisIndex,GuessSoundLoop.ran,GS_File,GS_Type,ExitKey.keys,ExitKey.rt
space,4.103,space,8.207,3,1,12.057,0,0,0,5,1,Headphone/t3_2.wav,3,5d096a5687e03b000176305c,58,2021-03-25_05h30.54.495,CombinedMST_OA,2020.2.10,Win32,60,,,,,,,,,,,,,,,,,,,,,,,,,,,,,,,,,,,,,,,,,,,,,,,,,,,,,,,,,,,,,,,,,,,,,,,,,,,,,,,,,,,,,,,,,,,,,,,,,,,,,,,,,,,,,,,,
,,,,1,1,2.265,0,1,1,0,1,Headphone/t1_1.wav,1,5d096a5687e03b000176305c,58,2021-03-25_05h30.54.495,CombinedMST_OA,2020.2.10,Win32,60,,,,,,,,,,,,,,,,,,,,,,,,,,,,,,,,,,,,,,,,,,,,,,,,,,,,,,,,,,,,,,,,,,,,,,,,,,,,,,,,,,,,,,,,,,,,,,,,,,,,,,,,,,,,,,,,
,,,,1,1,0.739,0,2,2,1,1,Headphone/t1_2.wav,1,5d096a5687e03b000176305c,58,2021-03-25_05h30.54.495,CombinedMST_OA,2020.2.10,Win32,60,,,,,,,,,,,,,,,,,,,,,,,,,,,,,,,,,,,,,,,,,,,,,,,,,,,,,,,,,,,,,,,,,,,,,,,,,,,,,,,,,,,,,,,,,,,,,,,,,,,,,,,,,,,,,,,,
,,,,3,1,0.592,0,3,3,4,1,Headphone/t3_1.wav,3,5d096a5687e03b000176305c,58,2021-03-25_05h30.54.495,CombinedMST_OA,2020.2.10,Win32,60,,,,,,,,,,,,,,,,,,,,,,,,,,,,,,,,,,,,,,,,,,,,,,,,,,,,,,,,,,,,,,,,,,,,,,,,,,,,,,,,,,,,,,,,,,,,,,,,,,,,,,,,,,,,,,,,
,,,,2,1,2.029,0,4,4,3,1,Headphone/t2_2.wav,2,5d096a5687e03b000176305c,58,2021-03-25_05h30.54.495,CombinedMST_OA,2020.2.10,Win32,60,,,,,,,,,,,,,,,,,,,,,,,,,,,,,,,,,,,,,,,,,,,,,,,,,,,,,,,,,,,,,,,,,,,,,,,,,,,,,,,,,,,,,,,,,,,,,,,,,,,,,,,,,,,,,,,,
,,,,2,1,0.907,0,5,5,2,1,Headphone/t2_1.wav,2,5d096a5687e03b000176305c,58,2021-03-25_05h30.54.495,CombinedMST_OA,2020.2.10,Win32,60,,,,,,,,,,,,,,,,,,,,,,,,,,,,,,,,,,,,,,,,,,,,,,,,,,,,,,,,,,,,,,,,,,,,,,,,,,,,,,,,,,,,,,,,,,,,,,,,,,,,,,,,,,,,,,,,
,,,,,,,,,,,,,2,5d096a5687e03b000176305c,58,2021-03-25_05h30.54.495,CombinedMST_OA,2020.2.10,Win32,60,space,7.963,space,16.742,space,9.516,space,5.213,2,1,11.606,0,0,0,0,1,Training/FO_YI_LAY.wav,NEW,,,,,,,,,,,,,,,,,,,,,,,,,,,,,,,,,,,,,,,,,,,,,,,,,,,,,,,,,,,,,,,,,,,,,,,,,,,,,,,,,,,,,,,,,,,,,,
,,,,,,,,,,,,,1,5d096a5687e03b000176305c,58,2021-03-25_05h30.54.495,CombinedMST_OA,2020.2.10,Win32,60,,,,,,,,,1,1,1.372,0,1,1,1,1,Training/FO_YI_LAY.wav,OLD,,,,,,,,,,,,,,,,,,,,,,,,,,,,,,,,,,,,,,,,,,,,,,,,,,,,,,,,,,,,,,,,,,,,,,,,,,,,,,,,,,,,,,,,,,,,,,
,,,,,,,,,,,,,2,5d096a5687e03b000176305c,58,2021-03-25_05h30.54.495,CombinedMST_OA,2020.2.10,Win32,60,,,,,,,,,2,1,1.091,0,2,2,2,1,Training/YO_BU_JAY.wav,NEW,,,,,,,,,,,,,,,,,,,,,,,,,,,,,,,,,,,,,,,,,,,,,,,,,,,,,,,,,,,,,,,,,,,,,,,,,,,,,,,,,,,,,,,,,,,,,,
,,,,,,,,,,,,,2,5d096a5687e03b000176305c,58,2021-03-25_05h30.54.495,CombinedMST_OA,2020.2.10,Win32,60,,,,,,,,,2,1,1.102,0,3,3,3,1,Training/JAY_YO_BU.wav,SIMILAR,,,,,,,,,,,,,,,,,,,,,,,,,,,,,,,,,,,,,,,,,,,,,,,,,,,,,,,,,,,,,,,,,,,,,,,,,,,,,,,,,,,,,,,,,,,,,,
,,,,,,,,,,,,,1,5d096a5687e03b000176305c,58,2021-03-25_05h30.54.495,CombinedMST_OA,2020.2.10,Win32,60,,,,,,,,,1,1,0.638,0,4,4,4,1,Training/FO_YI_LAY.wav,OLD,,,,,,,,,,,,,,,,,,,,,,,,,,,,,,,,,,,,,,,,,,,,,,,,,,,,,,,,,,,,,,,,,,,,,,,,,,,,,,,,,,,,,,,,,,,,,,
,,,,,,,,,,,,TestWords/CHU_LA_PAY.wav,,5d096a5687e03b000176305c,58,2021-03-25_05h30.54.495,CombinedMST_OA,2020.2.10,Win32,60,,,,,,,,,,,,,,,,,,,space,9.167,2,1,0.857,0,0,0,0,1,2,NEW,NEW,D,,,,,,,,,,,,,,,,,,,,,,,,,,,,,,,,,,,,,,,,,,,,,,,,,,,,,,,,,,,,,,,,,,,,,,,,,,,,,,,,
,,,,,,,,,,,,TestWords/FI_GU_CHA.wav,,5d096a5687e03b000176305c,58,2021-03-25_05h30.54.495,CombinedMST_OA,2020.2.10,Win32,60,,,,,,,,,,,,,,,,,,,,,2,1,0.538,0,1,1,1,1,2,NEW,NEW,D,,,,,,,,,,,,,,,,,,,,,,,,,,,,,,,,,,,,,,,,,,,,,,,,,,,,,,,,,,,,,,,,,,,,,,,,,,,,,,,,
,,,,,,,,,,,,TestWords/RAI_ZO_FU.wav,,5d096a5687e03b000176305c,58,2021-03-25_05h30.54.495,CombinedMST_OA,2020.2.10,Win32,60,,,,,,,,,,,,,,,,,,,,,2,1,0.508,0,2,2,2,1,2,NEW,NEW,D,,,,,,,,,,,,,,,,,,,,,,,,,,,,,,,,,,,,,,,,,,,,,,,,,,,,,,,,,,,,,,,,,,,,,,,,,,,,,,,,
,,,,,,,,,,,,TestWords/DAI_RU_CHI.wav,,5d096a5687e03b000176305c,58,2021-03-25_05h30.54.495,CombinedMST_OA,2020.2.10,Win32,60,,,,,,,,,,,,,,,,,,,,,2,1,0.504,0,3,3,3,1,2,NEW,NEW,D,,,,,,,,,,,,,,,,,,,,,,,,,,,,,,,,,,,,,,,,,,,,,,,,,,,,,,,,,,,,,,,,,,,,,,,,,,,,,,,,
,,,,,,,,,,,,TestWords/GA_MU_ZI.wav,,5d096a5687e03b000176305c,58,2021-03-25_05h30.54.495,CombinedMST_OA,2020.2.10,Win32,60,,,,,,,,,,,,,,,,,,,,,2,1,0.521,0,4,4,4,1,2,NEW,NEW,D,,,,,,,,,,,,,,,,,,,,,,,,,,,,,,,,,,,,,,,,,,,,,,,,,,,,,,,,,,,,,,,,,,,,,,,,,,,,,,,,
,,,,,,,,,,,,TestWords/DA_CHU_VAI.wav,,5d096a5687e03b000176305c,58,2021-03-25_05h30.54.495,CombinedMST_OA,2020.2.10,Win32,60,,,,,,,,,,,,,,,,,,,,,2,1,0.507,0,5,5,5,1,2,NEW,NEW,D,,,,,,,,,,,,,,,,,,,,,,,,,,,,,,,,,,,,,,,,,,,,,,,,,,,,,,,,,,,,,,,,,,,,,,,,,,,,,,,,
,,,,,,,,,,,,TestWords/ZO_RAI_FU.wav,,5d096a5687e03b000176305c,58,2021-03-25_05h30.54.495,CombinedMST_OA,2020.2.10,Win32,60,,,,,,,,,,,,,,,,,,,,,2,1,0.351,0,6,6,6,1,2,NEW,SIMILAR,D,,,,,,,,,,,,,,,,,,,,,,,,,,,,,,,,,,,,,,,,,,,,,,,,,,,,,,,,,,,,,,,,,,,,,,,,,,,,,,,,
,,,,,,,,,,,,TestWords/BA_KAY_LI.wav,,5d096a5687e03b000176305c,58,2021-03-25_05h30.54.495,CombinedMST_OA,2020.2.10,Win32,60,,,,,,,,,,,,,,,,,,,,,2,1,0.221,0,7,7,7,1,2,NEW,NEW,D,,,,,,,,,,,,,,,,,,,,,,,,,,,,,,,,,,,,,,,,,,,,,,,,,,,,,,,,,,,,,,,,,,,,,,,,,,,,,,,,
,,,,,,,,,,,,TestWords/VAI_HO_LA.wav,,5d096a5687e03b000176305c,58,2021-03-25_05h30.54.495,CombinedMST_OA,2020.2.10,Win32,60,,,,,,,,,,,,,,,,,,,,,2,1,0.391,0,8,8,8,1,2,NEW,NEW,D,,,,,,,,,,,,,,,,,,,,,,,,,,,,,,,,,,,,,,,,,,,,,,,,,,,,,,,,,,,,,,,,,,,,,,,,,,,,,,,,
,,,,,,,,,,,,TestWords/DAI_RU_CHI.wav,,5d096a5687e03b000176305c,58,2021-03-25_05h30.54.495,CombinedMST_OA,2020.2.10,Win32,60,,,,,,,,,,,,,,,,,,,,,2,0,0.594,0,9,9,9,1,1,OLD,OLD,D,,,,,,,,,,,,,,,,,,,,,,,,,,,,,,,,,,,,,,,,,,,,,,,,,,,,,,,,,,,,,,,,,,,,,,,,,,,,,,,,
,,,,,,,,,,,,TestWords/RAY_PA_TI.wav,,5d096a5687e03b000176305c,58,2021-03-25_05h30.54.495,CombinedMST_OA,2020.2.10,Win32,60,,,,,,,,,,,,,,,,,,,,,2,1,0.32,0,10,10,10,1,2,NEW,NEW,D,,,,,,,,,,,,,,,,,,,,,,,,,,,,,,,,,,,,,,,,,,,,,,,,,,,,,,,,,,,,,,,,,,,,,,,,,,,,,,,,
,,,,,,,,,,,,TestWords/NO_WA_BAY.wav,,5d096a5687e03b000176305c,58,2021-03-25_05h30.54.495,CombinedMST_OA,2020.2.10,Win32,60,,,,,,,,,,,,,,,,,,,,,2,1,0.371,0,11,11,11,1,2,NEW,NEW,D,,,,,,,,,,,,,,,,,,,,,,,,,,,,,,,,,,,,,,,,,,,,,,,,,,,,,,,,,,,,,,,,,,,,,,,,,,,,,,,,
,,,,,,,,,,,,TestWords/GA_MU_ZI.wav,,5d096a5687e03b000176305c,58,2021-03-25_05h30.54.495,CombinedMST_OA,2020.2.10,Win32,60,,,,,,,,,,,,,,,,,,,,,2,0,0.244,0,12,12,12,1,1,OLD,OLD,D,,,,,,,,,,,,,,,,,,,,,,,,,,,,,,,,,,,,,,,,,,,,,,,,,,,,,,,,,,,,,,,,,,,,,,,,,,,,,,,,
,,,,,,,,,,,,TestWords/WAI_VU_NA.wav,,5d096a5687e03b000176305c,58,2021-03-25_05h30.54.495,CombinedMST_OA,2020.2.10,Win32,60,,,,,,,,,,,,,,,,,,,,,2,1,0.292,0,13,13,13,1,2,NEW,NEW,D,,,,,,,,,,,,,,,,,,,,,,,,,,,,,,,,,,,,,,,,,,,,,,,,,,,,,,,,,,,,,,,,,,,,,,,,,,,,,,,,
,,,,,,,,,,,,TestWords/KAY_LI_BA.wav,,5d096a5687e03b000176305c,58,2021-03-25_05h30.54.495,CombinedMST_OA,2020.2.10,Win32,60,,,,,,,,,,,,,,,,,,,,,2,1,0.17,0,14,14,14,1,2,NEW,SIMILAR,D,,,,,,,,,,,,,,,,,,,,,,,,,,,,,,,,,,,,,,,,,,,,,,,,,,,,,,,,,,,,,,,,,,,,,,,,,,,,,,,,
,,,,,,,,,,,,TestWords/FU_RAI_ZO.wav,,5d096a5687e03b000176305c,58,2021-03-25_05h30.54.495,CombinedMST_OA,2020.2.10,Win32,60,,,,,,,,,,,,,,,,,,,,,2,1,0.621,0,15,15,15,1,2,NEW,SIMILAR,D,,,,,,,,,,,,,,,,,,,,,,,,,,,,,,,,,,,,,,,,,,,,,,,,,,,,,,,,,,,,,,,,,,,,,,,,,,,,,,,,
,,,,,,,,,,,,TestWords/KAI_LAY_TA.wav,,5d096a5687e03b000176305c,58,2021-03-25_05h30.54.495,CombinedMST_OA,2020.2.10,Win32,60,,,,,,,,,,,,,,,,,,,,,2,1,0.321,0,16,16,16,1,2,NEW,NEW,D,,,,,,,,,,,,,,,,,,,,,,,,,,,,,,,,,,,,,,,,,,,,,,,,,,,,,,,,,,,,,,,,,,,,,,,,,,,,,,,,
,,,,,,,,,,,,TestWords/RAY_PA_TI.wav,,5d096a5687e03b000176305c,58,2021-03-25_05h30.54.495,CombinedMST_OA,2020.2.10,Win32,60,,,,,,,,,,,,,,,,,,,,,2,0,1.106,0,17,17,17,1,1,OLD,OLD,D,,,,,,,,,,,,,,,,,,,,,,,,,,,,,,,,,,,,,,,,,,,,,,,,,,,,,,,,,,,,,,,,,,,,,,,,,,,,,,,,
,,,,,,,,,,,,TestWords/DAI_RU_CHI.wav,,5d096a5687e03b000176305c,58,2021-03-25_05h30.54.495,CombinedMST_OA,2020.2.10,Win32,60,,,,,,,,,,,,,,,,,,,,,1,1,0.857,0,18,18,18,1,1,OLD,OLD,D,,,,,,,,,,,,,,,,,,,,,,,,,,,,,,,,,,,,,,,,,,,,,,,,,,,,,,,,,,,,,,,,,,,,,,,,,,,,,,,,
,,,,,,,,,,,,TestWords/WAI_NA_VU.wav,,5d096a5687e03b000176305c,58,2021-03-25_05h30.54.495,CombinedMST_OA,2020.2.10,Win32,60,,,,,,,,,,,,,,,,,,,,,2,1,0.589,0,19,19,19,1,2,NEW,SIMILAR,D,,,,,,,,,,,,,,,,,,,,,,,,,,,,,,,,,,,,,,,,,,,,,,,,,,,,,,,,,,,,,,,,,,,,,,,,,,,,,,,,
,,,,,,,,,,,,TestWords/GA_MU_ZI.wav,,5d096a5687e03b000176305c,58,2021-03-25_05h30.54.495,CombinedMST_OA,2020.2.10,Win32,60,,,,,,,,,,,,,,,,,,,,,1,1,1.072,0,20,20,20,1,1,OLD,OLD,D,,,,,,,,,,,,,,,,,,,,,,,,,,,,,,,,,,,,,,,,,,,,,,,,,,,,,,,,,,,,,,,,,,,,,,,,,,,,,,,,
,,,,,,,,,,,,TestWords/KAY_BA_LI.wav,,5d096a5687e03b000176305c,58,2021-03-25_05h30.54.495,CombinedMST_OA,2020.2.10,Win32,60,,,,,,,,,,,,,,,,,,,,,2,1,0.238,0,21,21,21,1,2,NEW,SIMILAR,D,,,,,,,,,,,,,,,,,,,,,,,,,,,,,,,,,,,,,,,,,,,,,,,,,,,,,,,,,,,,,,,,,,,,,,,,,,,,,,,,
,,,,,,,,,,,,TestWords/KAI_LAY_TA.wav,,5d096a5687e03b000176305c,58,2021-03-25_05h30.54.495,CombinedMST_OA,2020.2.10,Win32,60,,,,,,,,,,,,,,,,,,,,,2,0,0.277,0,22,22,22,1,1,OLD,OLD,D,,,,,,,,,,,,,,,,,,,,,,,,,,,,,,,,,,,,,,,,,,,,,,,,,,,,,,,,,,,,,,,,,,,,,,,,,,,,,,,,
,,,,,,,,,,,,TestWords/FU_ZO_RAI.wav,,5d096a5687e03b000176305c,58,2021-03-25_05h30.54.495,CombinedMST_OA,2020.2.10,Win32,60,,,,,,,,,,,,,,,,,,,,,2,1,1.828,0,23,23,23,1,2,NEW,SIMILAR,D,,,,,,,,,,,,,,,,,,,,,,,,,,,,,,,,,,,,,,,,,,,,,,,,,,,,,,,,,,,,,,,,,,,,,,,,,,,,,,,,
,,,,,,,,,,,,TestWords/RAY_PA_TI.wav,,5d096a5687e03b000176305c,58,2021-03-25_05h30.54.495,CombinedMST_OA,2020.2.10,Win32,60,,,,,,,,,,,,,,,,,,,,,1,1,1.073,0,24,24,24,1,1,OLD,OLD,D,,,,,,,,,,,,,,,,,,,,,,,,,,,,,,,,,,,,,,,,,,,,,,,,,,,,,,,,,,,,,,,,,,,,,,,,,,,,,,,,
,,,,,,,,,,,,TestWords/DAI_RU_CHI.wav,,5d096a5687e03b000176305c,58,2021-03-25_05h30.54.495,CombinedMST_OA,2020.2.10,Win32,60,,,,,,,,,,,,,,,,,,,,,2,0,0.989,0,25,25,25,1,1,OLD,OLD,D,,,,,,,,,,,,,,,,,,,,,,,,,,,,,,,,,,,,,,,,,,,,,,,,,,,,,,,,,,,,,,,,,,,,,,,,,,,,,,,,
,,,,,,,,,,,,TestWords/VU_NA_WAI.wav,,5d096a5687e03b000176305c,58,2021-03-25_05h30.54.495,CombinedMST_OA,2020.2.10,Win32,60,,,,,,,,,,,,,,,,,,,,,2,1,0.405,0,26,26,26,1,2,NEW,SIMILAR,D,,,,,,,,,,,,,,,,,,,,,,,,,,,,,,,,,,,,,,,,,,,,,,,,,,,,,,,,,,,,,,,,,,,,,,,,,,,,,,,,
,,,,,,,,,,,,TestWords/RAI_FU_ZO.wav,,5d096a5687e03b000176305c,58,2021-03-25_05h30.54.495,CombinedMST_OA,2020.2.10,Win32,60,,,,,,,,,,,,,,,,,,,,,2,1,1.079,0,27,27,27,1,2,NEW,SIMILAR,D,,,,,,,,,,,,,,,,,,,,,,,,,,,,,,,,,,,,,,,,,,,,,,,,,,,,,,,,,,,,,,,,,,,,,,,,,,,,,,,,
,,,,,,,,,,,,TestWords/GA_MU_ZI.wav,,5d096a5687e03b000176305c,58,2021-03-25_05h30.54.495,CombinedMST_OA,2020.2.10,Win32,60,,,,,,,,,,,,,,,,,,,,,2,0,0.605,0,28,28,28,1,1,OLD,OLD,D,,,,,,,,,,,,,,,,,,,,,,,,,,,,,,,,,,,,,,,,,,,,,,,,,,,,,,,,,,,,,,,,,,,,,,,,,,,,,,,,
,,,,,,,,,,,,TestWords/LI_BA_KAY.wav,,5d096a5687e03b000176305c,58,2021-03-25_05h30.54.495,CombinedMST_OA,2020.2.10,Win32,60,,,,,,,,,,,,,,,,,,,,,2,1,0.22,0,29,29,29,1,2,NEW,SIMILAR,D,,,,,,,,,,,,,,,,,,,,,,,,,,,,,,,,,,,,,,,,,,,,,,,,,,,,,,,,,,,,,,,,,,,,,,,,,,,,,,,,
,,,,,,,,,,,,TestWords/KAI_LAY_TA.wav,,5d096a5687e03b000176305c,58,2021-03-25_05h30.54.495,CombinedMST_OA,2020.2.10,Win32,60,,,,,,,,,,,,,,,,,,,,,2,0,0.256,0,30,30,30,1,1,OLD,OLD,D,,,,,,,,,,,,,,,,,,,,,,,,,,,,,,,,,,,,,,,,,,,,,,,,,,,,,,,,,,,,,,,,,,,,,,,,,,,,,,,,
,,,,,,,,,,,,TestWords/RAY_PA_TI.wav,,5d096a5687e03b000176305c,58,2021-03-25_05h30.54.495,CombinedMST_OA,2020.2.10,Win32,60,,,,,,,,,,,,,,,,,,,,,1,1,0.588,0,31,31,31,1,1,OLD,OLD,D,,,,,,,,,,,,,,,,,,,,,,,,,,,,,,,,,,,,,,,,,,,,,,,,,,,,,,,,,,,,,,,,,,,,,,,,,,,,,,,,
,,,,,,,,,,,,TestWords/VU_WAI_NA.wav,,5d096a5687e03b000176305c,58,2021-03-25_05h30.54.495,CombinedMST_OA,2020.2.10,Win32,60,,,,,,,,,,,,,,,,,,,,,2,1,0.64,0,32,32,32,1,2,NEW,SIMILAR,D,,,,,,,,,,,,,,,,,,,,,,,,,,,,,,,,,,,,,,,,,,,,,,,,,,,,,,,,,,,,,,,,,,,,,,,,,,,,,,,,
,,,,,,,,,,,,TestWords/DAI_RU_CHI.wav,,5d096a5687e03b000176305c,58,2021-03-25_05h30.54.495,CombinedMST_OA,2020.2.10,Win32,60,,,,,,,,,,,,,,,,,,,,,2,0,0.91,0,33,33,33,1,1,OLD,OLD,D,,,,,,,,,,,,,,,,,,,,,,,,,,,,,,,,,,,,,,,,,,,,,,,,,,,,,,,,,,,,,,,,,,,,,,,,,,,,,,,,
,,,,,,,,,,,,TestWords/ZO_FU_RAI.wav,,5d096a5687e03b000176305c,58,2021-03-25_05h30.54.495,CombinedMST_OA,2020.2.10,Win32,60,,,,,,,,,,,,,,,,,,,,,2,1,0.487,0,34,34,34,1,2,NEW,SIMILAR,D,,,,,,,,,,,,,,,,,,,,,,,,,,,,,,,,,,,,,,,,,,,,,,,,,,,,,,,,,,,,,,,,,,,,,,,,,,,,,,,,
,,,,,,,,,,,,TestWords/BA_LI_KAY.wav,,5d096a5687e03b000176305c,58,2021-03-25_05h30.54.495,CombinedMST_OA,2020.2.10,Win32,60,,,,,,,,,,,,,,,,,,,,,2,1,0.337,0,35,35,35,1,2,NEW,SIMILAR,D,,,,,,,,,,,,,,,,,,,,,,,,,,,,,,,,,,,,,,,,,,,,,,,,,,,,,,,,,,,,,,,,,,,,,,,,,,,,,,,,
,,,,,,,,,,,,TestWords/KO_SU_FAI.wav,,5d096a5687e03b000176305c,58,2021-03-25_05h30.54.495,CombinedMST_OA,2020.2.10,Win32,60,,,,,,,,,,,,,,,,,,,,,2,1,0.354,0,36,36,36,1,2,NEW,NEW,D,,,,,,,,,,,,,,,,,,,,,,,,,,,,,,,,,,,,,,,,,,,,,,,,,,,,,,,,,,,,,,,,,,,,,,,,,,,,,,,,
,,,,,,,,,,,,TestWords/KAI_LAY_TA.wav,,5d096a5687e03b000176305c,58,2021-03-25_05h30.54.495,CombinedMST_OA,2020.2.10,Win32,60,,,,,,,,,,,,,,,,,,,,,1,1,0.857,0,37,37,37,1,1,OLD,OLD,D,,,,,,,,,,,,,,,,,,,,,,,,,,,,,,,,,,,,,,,,,,,,,,,,,,,,,,,,,,,,,,,,,,,,,,,,,,,,,,,,
,,,,,,,,,,,,TestWords/RAY_PA_TI.wav,,5d096a5687e03b000176305c,58,2021-03-25_05h30.54.495,CombinedMST_OA,2020.2.10,Win32,60,,,,,,,,,,,,,,,,,,,,,1,1,0.326,0,38,38,38,1,1,OLD,OLD,D,,,,,,,,,,,,,,,,,,,,,,,,,,,,,,,,,,,,,,,,,,,,,,,,,,,,,,,,,,,,,,,,,,,,,,,,,,,,,,,,
,,,,,,,,,,,,TestWords/GA_MU_ZI.wav,,5d096a5687e03b000176305c,58,2021-03-25_05h30.54.495,CombinedMST_OA,2020.2.10,Win32,60,,,,,,,,,,,,,,,,,,,,,1,1,0.412,0,39,39,39,1,1,OLD,OLD,D,,,,,,,,,,,,,,,,,,,,,,,,,,,,,,,,,,,,,,,,,,,,,,,,,,,,,,,,,,,,,,,,,,,,,,,,,,,,,,,,
,,,,,,,,,,,,TestWords/NA_VU_WAI.wav,,5d096a5687e03b000176305c,58,2021-03-25_05h30.54.495,CombinedMST_OA,2020.2.10,Win32,60,,,,,,,,,,,,,,,,,,,,,2,1,0.756,0,40,40,40,1,2,NEW,SIMILAR,D,,,,,,,,,,,,,,,,,,,,,,,,,,,,,,,,,,,,,,,,,,,,,,,,,,,,,,,,,,,,,,,,,,,,,,,,,,,,,,,,
,,,,,,,,,,,,TestWords/DAI_RU_CHI.wav,,5d096a5687e03b000176305c,58,2021-03-25_05h30.54.495,CombinedMST_OA,2020.2.10,Win32,60,,,,,,,,,,,,,,,,,,,,,2,0,0.994,0,41,41,41,1,1,OLD,OLD,D,,,,,,,,,,,,,,,,,,,,,,,,,,,,,,,,,,,,,,,,,,,,,,,,,,,,,,,,,,,,,,,,,,,,,,,,,,,,,,,,
,,,,,,,,,,,,TestWords/KO_SU_FAI.wav,,5d096a5687e03b000176305c,58,2021-03-25_05h30.54.495,CombinedMST_OA,2020.2.10,Win32,60,,,,,,,,,,,,,,,,,,,,,2,0,0.472,0,42,42,42,1,1,OLD,OLD,D,,,,,,,,,,,,,,,,,,,,,,,,,,,,,,,,,,,,,,,,,,,,,,,,,,,,,,,,,,,,,,,,,,,,,,,,,,,,,,,,
,,,,,,,,,,,,TestWords/NA_WAI_VU.wav,,5d096a5687e03b000176305c,58,2021-03-25_05h30.54.495,CombinedMST_OA,2020.2.10,Win32,60,,,,,,,,,,,,,,,,,,,,,2,1,0.254,0,43,43,43,1,2,NEW,SIMILAR,D,,,,,,,,,,,,,,,,,,,,,,,,,,,,,,,,,,,,,,,,,,,,,,,,,,,,,,,,,,,,,,,,,,,,,,,,,,,,,,,,
,,,,,,,,,,,,TestWords/KAI_LAY_TA.wav,,5d096a5687e03b000176305c,58,2021-03-25_05h30.54.495,CombinedMST_OA,2020.2.10,Win32,60,,,,,,,,,,,,,,,,,,,,,2,0,0.673,0,44,44,44,1,1,OLD,OLD,D,,,,,,,,,,,,,,,,,,,,,,,,,,,,,,,,,,,,,,,,,,,,,,,,,,,,,,,,,,,,,,,,,,,,,,,,,,,,,,,,
,,,,,,,,,,,,TestWords/SI_VAI_CHU.wav,,5d096a5687e03b000176305c,58,2021-03-25_05h30.54.495,CombinedMST_OA,2020.2.10,Win32,60,,,,,,,,,,,,,,,,,,,,,2,1,0.812,0,45,45,45,1,2,NEW,NEW,D,,,,,,,,,,,,,,,,,,,,,,,,,,,,,,,,,,,,,,,,,,,,,,,,,,,,,,,,,,,,,,,,,,,,,,,,,,,,,,,,
,,,,,,,,,,,,TestWords/RAY_PA_TI.wav,,5d096a5687e03b000176305c,58,2021-03-25_05h30.54.495,CombinedMST_OA,2020.2.10,Win32,60,,,,,,,,,,,,,,,,,,,,,1,1,0.304,0,46,46,46,1,1,OLD,OLD,D,,,,,,,,,,,,,,,,,,,,,,,,,,,,,,,,,,,,,,,,,,,,,,,,,,,,,,,,,,,,,,,,,,,,,,,,,,,,,,,,
,,,,,,,,,,,,TestWords/GA_MU_ZI.wav,,5d096a5687e03b000176305c,58,2021-03-25_05h30.54.495,CombinedMST_OA,2020.2.10,Win32,60,,,,,,,,,,,,,,,,,,,,,1,1,0.438,0,47,47,47,1,1,OLD,OLD,D,,,,,,,,,,,,,,,,,,,,,,,,,,,,,,,,,,,,,,,,,,,,,,,,,,,,,,,,,,,,,,,,,,,,,,,,,,,,,,,,
,,,,,,,,,,,,TestWords/LI_KAY_BA.wav,,5d096a5687e03b000176305c,58,2021-03-25_05h30.54.495,CombinedMST_OA,2020.2.10,Win32,60,,,,,,,,,,,,,,,,,,,,,2,1,0.441,0,48,48,48,1,2,NEW,SIMILAR,D,,,,,,,,,,,,,,,,,,,,,,,,,,,,,,,,,,,,,,,,,,,,,,,,,,,,,,,,,,,,,,,,,,,,,,,,,,,,,,,,
,,,,,,,,,,,,TestWords/KO_SU_FAI.wav,,5d096a5687e03b000176305c,58,2021-03-25_05h30.54.495,CombinedMST_OA,2020.2.10,Win32,60,,,,,,,,,,,,,,,,,,,,,2,0,0.354,0,49,49,49,1,1,OLD,OLD,D,,,,,,,,,,,,,,,,,,,,,,,,,,,,,,,,,,,,,,,,,,,,,,,,,,,,,,,,,,,,,,,,,,,,,,,,,,,,,,,,
,,,,,,,,,,,,TestWords/DAI_RU_CHI.wav,,5d096a5687e03b000176305c,58,2021-03-25_05h30.54.495,CombinedMST_OA,2020.2.10,Win32,60,,,,,,,,,,,,,,,,,,,,,1,1,0.271,0,50,50,50,1,1,OLD,OLD,D,,,,,,,,,,,,,,,,,,,,,,,,,,,,,,,,,,,,,,,,,,,,,,,,,,,,,,,,,,,,,,,,,,,,,,,,,,,,,,,,
,,,,,,,,,,,,TestWords/DAY_PU_MO.wav,,5d096a5687e03b000176305c,58,2021-03-25_05h30.54.495,CombinedMST_OA,2020.2.10,Win32,60,,,,,,,,,,,,,,,,,,,,,2,1,0.622,0,51,51,51,1,2,NEW,NEW,D,,,,,,,,,,,,,,,,,,,,,,,,,,,,,,,,,,,,,,,,,,,,,,,,,,,,,,,,,,,,,,,,,,,,,,,,,,,,,,,,
,,,,,,,,,,,,TestWords/KAI_LAY_TA.wav,,5d096a5687e03b000176305c,58,2021-03-25_05h30.54.495,CombinedMST_OA,2020.2.10,Win32,60,,,,,,,,,,,,,,,,,,,,,1,1,0.504,0,52,52,52,1,1,OLD,OLD,D,,,,,,,,,,,,,,,,,,,,,,,,,,,,,,,,,,,,,,,,,,,,,,,,,,,,,,,,,,,,,,,,,,,,,,,,,,,,,,,,
,,,,,,,,,,,,TestWords/LU_HAI_BO.wav,,5d096a5687e03b000176305c,58,2021-03-25_05h30.54.495,CombinedMST_OA,2020.2.10,Win32,60,,,,,,,,,,,,,,,,,,,,,2,1,0.826,0,53,53,53,1,2,NEW,NEW,D,,,,,,,,,,,,,,,,,,,,,,,,,,,,,,,,,,,,,,,,,,,,,,,,,,,,,,,,,,,,,,,,,,,,,,,,,,,,,,,,
,,,,,,,,,,,,TestWords/RAY_PA_TI.wav,,5d096a5687e03b000176305c,58,2021-03-25_05h30.54.495,CombinedMST_OA,2020.2.10,Win32,60,,,,,,,,,,,,,,,,,,,,,1,1,0.289,0,54,54,54,1,1,OLD,OLD,D,,,,,,,,,,,,,,,,,,,,,,,,,,,,,,,,,,,,,,,,,,,,,,,,,,,,,,,,,,,,,,,,,,,,,,,,,,,,,,,,
,,,,,,,,,,,,TestWords/GA_MU_ZI.wav,,5d096a5687e03b000176305c,58,2021-03-25_05h30.54.495,CombinedMST_OA,2020.2.10,Win32,60,,,,,,,,,,,,,,,,,,,,,1,1,0.321,0,55,55,55,1,1,OLD,OLD,D,,,,,,,,,,,,,,,,,,,,,,,,,,,,,,,,,,,,,,,,,,,,,,,,,,,,,,,,,,,,,,,,,,,,,,,,,,,,,,,,
,,,,,,,,,,,,TestWords/KO_SU_FAI.wav,,5d096a5687e03b000176305c,58,2021-03-25_05h30.54.495,CombinedMST_OA,2020.2.10,Win32,60,,,,,,,,,,,,,,,,,,,,,1,1,0.772,0,56,56,56,1,1,OLD,OLD,D,,,,,,,,,,,,,,,,,,,,,,,,,,,,,,,,,,,,,,,,,,,,,,,,,,,,,,,,,,,,,,,,,,,,,,,,,,,,,,,,
,,,,,,,,,,,,TestWords/TAI_SA_GI.wav,,5d096a5687e03b000176305c,58,2021-03-25_05h30.54.495,CombinedMST_OA,2020.2.10,Win32,60,,,,,,,,,,,,,,,,,,,,,2,1,0.743,0,57,57,57,1,2,NEW,NEW,D,,,,,,,,,,,,,,,,,,,,,,,,,,,,,,,,,,,,,,,,,,,,,,,,,,,,,,,,,,,,,,,,,,,,,,,,,,,,,,,,
,,,,,,,,,,,,TestWords/DAY_MO_PU.wav,,5d096a5687e03b000176305c,58,2021-03-25_05h30.54.495,CombinedMST_OA,2020.2.10,Win32,60,,,,,,,,,,,,,,,,,,,,,2,1,0.854,0,58,58,58,1,2,NEW,SIMILAR,D,,,,,,,,,,,,,,,,,,,,,,,,,,,,,,,,,,,,,,,,,,,,,,,,,,,,,,,,,,,,,,,,,,,,,,,,,,,,,,,,
,,,,,,,,,,,,TestWords/DAI_RU_CHI.wav,,5d096a5687e03b000176305c,58,2021-03-25_05h30.54.495,CombinedMST_OA,2020.2.10,Win32,60,,,,,,,,,,,,,,,,,,,,,1,1,0.424,0,59,59,59,1,1,OLD,OLD,D,,,,,,,,,,,,,,,,,,,,,,,,,,,,,,,,,,,,,,,,,,,,,,,,,,,,,,,,,,,,,,,,,,,,,,,,,,,,,,,,
,,,,,,,,,,,,TestWords/KAI_LAY_TA.wav,,5d096a5687e03b000176305c,58,2021-03-25_05h30.54.495,CombinedMST_OA,2020.2.10,Win32,60,,,,,,,,,,,,,,,,,,,,,1,1,0.441,0,60,60,60,1,1,OLD,OLD,D,,,,,,,,,,,,,,,,,,,,,,,,,,,,,,,,,,,,,,,,,,,,,,,,,,,,,,,,,,,,,,,,,,,,,,,,,,,,,,,,
,,,,,,,,,,,,TestWords/LA_ZAY_CHAI.wav,,5d096a5687e03b000176305c,58,2021-03-25_05h30.54.495,CombinedMST_OA,2020.2.10,Win32,60,,,,,,,,,,,,,,,,,,,,,2,1,0.889,0,61,61,61,1,2,NEW,NEW,D,,,,,,,,,,,,,,,,,,,,,,,,,,,,,,,,,,,,,,,,,,,,,,,,,,,,,,,,,,,,,,,,,,,,,,,,,,,,,,,,
,,,,,,,,,,,,TestWords/RAY_PA_TI.wav,,5d096a5687e03b000176305c,58,2021-03-25_05h30.54.495,CombinedMST_OA,2020.2.10,Win32,60,,,,,,,,,,,,,,,,,,,,,1,1,0.342,0,62,62,62,1,1,OLD,OLD,D,,,,,,,,,,,,,,,,,,,,,,,,,,,,,,,,,,,,,,,,,,,,,,,,,,,,,,,,,,,,,,,,,,,,,,,,,,,,,,,,
,,,,,,,,,,,,TestWords/KO_SU_FAI.wav,,5d096a5687e03b000176305c,58,2021-03-25_05h30.54.495,CombinedMST_OA,2020.2.10,Win32,60,,,,,,,,,,,,,,,,,,,,,1,1,0.394,0,63,63,63,1,1,OLD,OLD,D,,,,,,,,,,,,,,,,,,,,,,,,,,,,,,,,,,,,,,,,,,,,,,,,,,,,,,,,,,,,,,,,,,,,,,,,,,,,,,,,
,,,,,,,,,,,,TestWords/GA_MU_ZI.wav,,5d096a5687e03b000176305c,58,2021-03-25_05h30.54.495,CombinedMST_OA,2020.2.10,Win32,60,,,,,,,,,,,,,,,,,,,,,1,1,0.388,0,64,64,64,1,1,OLD,OLD,D,,,,,,,,,,,,,,,,,,,,,,,,,,,,,,,,,,,,,,,,,,,,,,,,,,,,,,,,,,,,,,,,,,,,,,,,,,,,,,,,
,,,,,,,,,,,,TestWords/GI_TAI_SA.wav,,5d096a5687e03b000176305c,58,2021-03-25_05h30.54.495,CombinedMST_OA,2020.2.10,Win32,60,,,,,,,,,,,,,,,,,,,,,2,1,0.423,0,65,65,65,1,2,NEW,SIMILAR,D,,,,,,,,,,,,,,,,,,,,,,,,,,,,,,,,,,,,,,,,,,,,,,,,,,,,,,,,,,,,,,,,,,,,,,,,,,,,,,,,
,,,,,,,,,,,,TestWords/MO_DAY_PU.wav,,5d096a5687e03b000176305c,58,2021-03-25_05h30.54.495,CombinedMST_OA,2020.2.10,Win32,60,,,,,,,,,,,,,,,,,,,,,2,1,0.303,0,66,66,66,1,2,NEW,SIMILAR,D,,,,,,,,,,,,,,,,,,,,,,,,,,,,,,,,,,,,,,,,,,,,,,,,,,,,,,,,,,,,,,,,,,,,,,,,,,,,,,,,
,,,,,,,,,,,,TestWords/KAI_LAY_TA.wav,,5d096a5687e03b000176305c,58,2021-03-25_05h30.54.495,CombinedMST_OA,2020.2.10,Win32,60,,,,,,,,,,,,,,,,,,,,,2,0,1.074,0,67,67,67,1,1,OLD,OLD,D,,,,,,,,,,,,,,,,,,,,,,,,,,,,,,,,,,,,,,,,,,,,,,,,,,,,,,,,,,,,,,,,,,,,,,,,,,,,,,,,
,,,,,,,,,,,,TestWords/KO_SU_FAI.wav,,5d096a5687e03b000176305c,58,2021-03-25_05h30.54.495,CombinedMST_OA,2020.2.10,Win32,60,,,,,,,,,,,,,,,,,,,,,2,0,0.61,0,68,68,68,1,1,OLD,OLD,D,,,,,,,,,,,,,,,,,,,,,,,,,,,,,,,,,,,,,,,,,,,,,,,,,,,,,,,,,,,,,,,,,,,,,,,,,,,,,,,,
,,,,,,,,,,,,TestWords/RAY_PA_TI.wav,,5d096a5687e03b000176305c,58,2021-03-25_05h30.54.495,CombinedMST_OA,2020.2.10,Win32,60,,,,,,,,,,,,,,,,,,,,,1,1,0.338,0,69,69,69,1,1,OLD,OLD,D,,,,,,,,,,,,,,,,,,,,,,,,,,,,,,,,,,,,,,,,,,,,,,,,,,,,,,,,,,,,,,,,,,,,,,,,,,,,,,,,
,,,,,,,,,,,,TestWords/NU_CHAY_SO.wav,,5d096a5687e03b000176305c,58,2021-03-25_05h30.54.495,CombinedMST_OA,2020.2.10,Win32,60,,,,,,,,,,,,,,,,,,,,,2,1,0.456,0,70,70,70,1,2,NEW,NEW,D,,,,,,,,,,,,,,,,,,,,,,,,,,,,,,,,,,,,,,,,,,,,,,,,,,,,,,,,,,,,,,,,,,,,,,,,,,,,,,,,
,,,,,,,,,,,,TestWords/GA_MU_ZI.wav,,5d096a5687e03b000176305c,58,2021-03-25_05h30.54.495,CombinedMST_OA,2020.2.10,Win32,60,,,,,,,,,,,,,,,,,,,,,1,1,0.256,0,71,71,71,1,1,OLD,OLD,D,,,,,,,,,,,,,,,,,,,,,,,,,,,,,,,,,,,,,,,,,,,,,,,,,,,,,,,,,,,,,,,,,,,,,,,,,,,,,,,,
,,,,,,,,,,,,TestWords/DAI_RU_CHI.wav,,5d096a5687e03b000176305c,58,2021-03-25_05h30.54.495,CombinedMST_OA,2020.2.10,Win32,60,,,,,,,,,,,,,,,,,,,,,1,1,0.322,0,72,72,72,1,1,OLD,OLD,D,,,,,,,,,,,,,,,,,,,,,,,,,,,,,,,,,,,,,,,,,,,,,,,,,,,,,,,,,,,,,,,,,,,,,,,,,,,,,,,,
,,,,,,,,,,,,TestWords/SA_TAI_GI.wav,,5d096a5687e03b000176305c,58,2021-03-25_05h30.54.495,CombinedMST_OA,2020.2.10,Win32,60,,,,,,,,,,,,,,,,,,,,,1,0,1.075,0,73,73,73,1,2,NEW,SIMILAR,D,,,,,,,,,,,,,,,,,,,,,,,,,,,,,,,,,,,,,,,,,,,,,,,,,,,,,,,,,,,,,,,,,,,,,,,,,,,,,,,,
,,,,,,,,,,,,TestWords/PU_DAY_MO.wav,,5d096a5687e03b000176305c,58,2021-03-25_05h30.54.495,CombinedMST_OA,2020.2.10,Win32,60,,,,,,,,,,,,,,,,,,,,,2,1,0.52,0,74,74,74,1,2,NEW,SIMILAR,D,,,,,,,,,,,,,,,,,,,,,,,,,,,,,,,,,,,,,,,,,,,,,,,,,,,,,,,,,,,,,,,,,,,,,,,,,,,,,,,,
,,,,,,,,,,,,TestWords/KO_SU_FAI.wav,,5d096a5687e03b000176305c,58,2021-03-25_05h30.54.495,CombinedMST_OA,2020.2.10,Win32,60,,,,,,,,,,,,,,,,,,,,,2,0,0.471,0,75,75,75,1,1,OLD,OLD,D,,,,,,,,,,,,,,,,,,,,,,,,,,,,,,,,,,,,,,,,,,,,,,,,,,,,,,,,,,,,,,,,,,,,,,,,,,,,,,,,
,,,,,,,,,,,,TestWords/KAI_LAY_TA.wav,,5d096a5687e03b000176305c,58,2021-03-25_05h30.54.495,CombinedMST_OA,2020.2.10,Win32,60,,,,,,,,,,,,,,,,,,,,,2,0,0.693,0,76,76,76,1,1,OLD,OLD,D,,,,,,,,,,,,,,,,,,,,,,,,,,,,,,,,,,,,,,,,,,,,,,,,,,,,,,,,,,,,,,,,,,,,,,,,,,,,,,,,
,,,,,,,,,,,,TestWords/HA_SI_JAI.wav,,5d096a5687e03b000176305c,58,2021-03-25_05h30.54.495,CombinedMST_OA,2020.2.10,Win32,60,,,,,,,,,,,,,,,,,,,,,2,1,0.642,0,77,77,77,1,2,NEW,NEW,D,,,,,,,,,,,,,,,,,,,,,,,,,,,,,,,,,,,,,,,,,,,,,,,,,,,,,,,,,,,,,,,,,,,,,,,,,,,,,,,,
,,,,,,,,,,,,TestWords/RAY_PA_TI.wav,,5d096a5687e03b000176305c,58,2021-03-25_05h30.54.495,CombinedMST_OA,2020.2.10,Win32,60,,,,,,,,,,,,,,,,,,,,,1,1,1.056,0,78,78,78,1,1,OLD,OLD,D,,,,,,,,,,,,,,,,,,,,,,,,,,,,,,,,,,,,,,,,,,,,,,,,,,,,,,,,,,,,,,,,,,,,,,,,,,,,,,,,
,,,,,,,,,,,,TestWords/DAI_RU_CHI.wav,,5d096a5687e03b000176305c,58,2021-03-25_05h30.54.495,CombinedMST_OA,2020.2.10,Win32,60,,,,,,,,,,,,,,,,,,,,,1,1,0.391,0,79,79,79,1,1,OLD,OLD,D,,,,,,,,,,,,,,,,,,,,,,,,,,,,,,,,,,,,,,,,,,,,,,,,,,,,,,,,,,,,,,,,,,,,,,,,,,,,,,,,
,,,,,,,,,,,,TestWords/GA_MU_ZI.wav,,5d096a5687e03b000176305c,58,2021-03-25_05h30.54.495,CombinedMST_OA,2020.2.10,Win32,60,,,,,,,,,,,,,,,,,,,,,1,1,0.193,0,80,80,80,1,1,OLD,OLD,D,,,,,,,,,,,,,,,,,,,,,,,,,,,,,,,,,,,,,,,,,,,,,,,,,,,,,,,,,,,,,,,,,,,,,,,,,,,,,,,,
,,,,,,,,,,,,TestWords/SA_GI_TAI.wav,,5d096a5687e03b000176305c,58,2021-03-25_05h30.54.495,CombinedMST_OA,2020.2.10,Win32,60,,,,,,,,,,,,,,,,,,,,,2,1,0.856,0,81,81,81,1,2,NEW,SIMILAR,D,,,,,,,,,,,,,,,,,,,,,,,,,,,,,,,,,,,,,,,,,,,,,,,,,,,,,,,,,,,,,,,,,,,,,,,,,,,,,,,,
,,,,,,,,,,,,TestWords/KO_SU_FAI.wav,,5d096a5687e03b000176305c,58,2021-03-25_05h30.54.495,CombinedMST_OA,2020.2.10,Win32,60,,,,,,,,,,,,,,,,,,,,,1,1,0.371,0,82,82,82,1,1,OLD,OLD,D,,,,,,,,,,,,,,,,,,,,,,,,,,,,,,,,,,,,,,,,,,,,,,,,,,,,,,,,,,,,,,,,,,,,,,,,,,,,,,,,
,,,,,,,,,,,,TestWords/KAI_LAY_TA.wav,,5d096a5687e03b000176305c,58,2021-03-25_05h30.54.495,CombinedMST_OA,2020.2.10,Win32,60,,,,,,,,,,,,,,,,,,,,,1,1,1.207,0,83,83,83,1,1,OLD,OLD,D,,,,,,,,,,,,,,,,,,,,,,,,,,,,,,,,,,,,,,,,,,,,,,,,,,,,,,,,,,,,,,,,,,,,,,,,,,,,,,,,
,,,,,,,,,,,,TestWords/PU_MO_DAY.wav,,5d096a5687e03b000176305c,58,2021-03-25_05h30.54.495,CombinedMST_OA,2020.2.10,Win32,60,,,,,,,,,,,,,,,,,,,,,2,1,0.573,0,84,84,84,1,2,NEW,SIMILAR,D,,,,,,,,,,,,,,,,,,,,,,,,,,,,,,,,,,,,,,,,,,,,,,,,,,,,,,,,,,,,,,,,,,,,,,,,,,,,,,,,
,,,,,,,,,,,,TestWords/RAY_PA_TI.wav,,5d096a5687e03b000176305c,58,2021-03-25_05h30.54.495,CombinedMST_OA,2020.2.10,Win32,60,,,,,,,,,,,,,,,,,,,,,1,1,0.389,0,85,85,85,1,1,OLD,OLD,D,,,,,,,,,,,,,,,,,,,,,,,,,,,,,,,,,,,,,,,,,,,,,,,,,,,,,,,,,,,,,,,,,,,,,,,,,,,,,,,,
,,,,,,,,,,,,TestWords/HI_NAY_VA.wav,,5d096a5687e03b000176305c,58,2021-03-25_05h30.54.495,CombinedMST_OA,2020.2.10,Win32,60,,,,,,,,,,,,,,,,,,,,,2,1,0.376,0,86,86,86,1,2,NEW,NEW,D,,,,,,,,,,,,,,,,,,,,,,,,,,,,,,,,,,,,,,,,,,,,,,,,,,,,,,,,,,,,,,,,,,,,,,,,,,,,,,,,
,,,,,,,,,,,,TestWords/DAI_RU_CHI.wav,,5d096a5687e03b000176305c,58,2021-03-25_05h30.54.495,CombinedMST_OA,2020.2.10,Win32,60,,,,,,,,,,,,,,,,,,,,,1,1,0.372,0,87,87,87,1,1,OLD,OLD,D,,,,,,,,,,,,,,,,,,,,,,,,,,,,,,,,,,,,,,,,,,,,,,,,,,,,,,,,,,,,,,,,,,,,,,,,,,,,,,,,
,,,,,,,,,,,,TestWords/TAI_GI_SA.wav,,5d096a5687e03b000176305c,58,2021-03-25_05h30.54.495,CombinedMST_OA,2020.2.10,Win32,60,,,,,,,,,,,,,,,,,,,,,2,1,0.56,0,88,88,88,1,2,NEW,SIMILAR,D,,,,,,,,,,,,,,,,,,,,,,,,,,,,,,,,,,,,,,,,,,,,,,,,,,,,,,,,,,,,,,,,,,,,,,,,,,,,,,,,
,,,,,,,,,,,,TestWords/KO_SU_FAI.wav,,5d096a5687e03b000176305c,58,2021-03-25_05h30.54.495,CombinedMST_OA,2020.2.10,Win32,60,,,,,,,,,,,,,,,,,,,,,2,0,0.321,0,89,89,89,1,1,OLD,OLD,D,,,,,,,,,,,,,,,,,,,,,,,,,,,,,,,,,,,,,,,,,,,,,,,,,,,,,,,,,,,,,,,,,,,,,,,,,,,,,,,,
,,,,,,,,,,,,TestWords/GA_MU_ZI.wav,,5d096a5687e03b000176305c,58,2021-03-25_05h30.54.495,CombinedMST_OA,2020.2.10,Win32,60,,,,,,,,,,,,,,,,,,,,,1,1,0.255,0,90,90,90,1,1,OLD,OLD,D,,,,,,,,,,,,,,,,,,,,,,,,,,,,,,,,,,,,,,,,,,,,,,,,,,,,,,,,,,,,,,,,,,,,,,,,,,,,,,,,
,,,,,,,,,,,,TestWords/PAI_LU_WA.wav,,5d096a5687e03b000176305c,58,2021-03-25_05h30.54.495,CombinedMST_OA,2020.2.10,Win32,60,,,,,,,,,,,,,,,,,,,,,2,1,0.472,0,91,91,91,1,2,NEW,NEW,D,,,,,,,,,,,,,,,,,,,,,,,,,,,,,,,,,,,,,,,,,,,,,,,,,,,,,,,,,,,,,,,,,,,,,,,,,,,,,,,,
,,,,,,,,,,,,TestWords/KAI_LAY_TA.wav,,5d096a5687e03b000176305c,58,2021-03-25_05h30.54.495,CombinedMST_OA,2020.2.10,Win32,60,,,,,,,,,,,,,,,,,,,,,2,0,1.175,0,92,92,92,1,1,OLD,OLD,D,,,,,,,,,,,,,,,,,,,,,,,,,,,,,,,,,,,,,,,,,,,,,,,,,,,,,,,,,,,,,,,,,,,,,,,,,,,,,,,,
,,,,,,,,,,,,TestWords/MO_PU_DAY.wav,,5d096a5687e03b000176305c,58,2021-03-25_05h30.54.495,CombinedMST_OA,2020.2.10,Win32,60,,,,,,,,,,,,,,,,,,,,,2,1,0.306,0,93,93,93,1,2,NEW,SIMILAR,D,,,,,,,,,,,,,,,,,,,,,,,,,,,,,,,,,,,,,,,,,,,,,,,,,,,,,,,,,,,,,,,,,,,,,,,,,,,,,,,,
,,,,,,,,,,,,TestWords/KO_SU_FAI.wav,,5d096a5687e03b000176305c,58,2021-03-25_05h30.54.495,CombinedMST_OA,2020.2.10,Win32,60,,,,,,,,,,,,,,,,,,,,,1,1,0.99,0,94,94,94,1,1,OLD,OLD,D,,,,,,,,,,,,,,,,,,,,,,,,,,,,,,,,,,,,,,,,,,,,,,,,,,,,,,,,,,,,,,,,,,,,,,,,,,,,,,,,
,,,,,,,,,,,,TestWords/GI_SA_TAI.wav,,5d096a5687e03b000176305c,58,2021-03-25_05h30.54.495,CombinedMST_OA,2020.2.10,Win32,60,,,,,,,,,,,,,,,,,,,,,1,0,0.455,0,95,95,95,1,2,NEW,SIMILAR,D,,,,,,,,,,,,,,,,,,,,,,,,,,,,,,,,,,,,,,,,,,,,,,,,,,,,,,,,,,,,,,,,,,,,,,,,,,,,,,,,
,,,,,,,,,,,,TestWords/HO_NAY_VA.wav,,5d096a5687e03b000176305c,58,2021-03-25_05h30.54.495,CombinedMST_OA,2020.2.10,Win32,60,,,,,,,,,,,,,,,,,,,,,1,0,0.655,0,96,96,96,1,2,NEW,NEW,D,,,,,,,,,,,,,,,,,,,,,,,,,,,,,,,,,,,,,,,,,,,,,,,,,,,,,,,,,,,,,,,,,,,,,,,,,,,,,,,,
,,,,,,,,,,,,TestWords/GU_CHAI_PI.wav,,5d096a5687e03b000176305c,58,2021-03-25_05h30.54.495,CombinedMST_OA,2020.2.10,Win32,60,,,,,,,,,,,,,,,,,,,,,2,1,0.828,0,97,97,97,1,2,NEW,NEW,D,,,,,,,,,,,,,,,,,,,,,,,,,,,,,,,,,,,,,,,,,,,,,,,,,,,,,,,,,,,,,,,,,,,,,,,,,,,,,,,,
,,,,,,,,,,,,TestWords/KO_SU_FAI.wav,,5d096a5687e03b000176305c,58,2021-03-25_05h30.54.495,CombinedMST_OA,2020.2.10,Win32,60,,,,,,,,,,,,,,,,,,,,,1,1,1.24,0,98,98,98,1,1,OLD,OLD,D,,,,,,,,,,,,,,,,,,,,,,,,,,,,,,,,,,,,,,,,,,,,,,,,,,,,,,,,,,,,,,,,,,,,,,,,,,,,,,,,
,,,,,,,,,,,,TestWords/WAI_RO_JU.wav,,5d096a5687e03b000176305c,58,2021-03-25_05h30.54.495,CombinedMST_OA,2020.2.10,Win32,60,,,,,,,,,,,,,,,,,,,,,2,1,1.161,0,99,99,99,1,2,NEW,NEW,D,,,,,,,,,,,,,,,,,,,,,,,,,,,,,,,,,,,,,,,,,,,,,,,,,,,,,,,,,,,,,,,,,,,,,,,,,,,,,,,,
,,,,,,,,,,,,,1,5d096a5687e03b000176305c,58,2021-03-25_05h30.54.495,CombinedMST_OA,2020.2.10,Win32,60,,,,,,,,,,,,,,,,,SyllableCheck/TI.wav,,,,,,,,,,,,,,,,return,12.827,Blue,space,6.634,1,1,5.25,0,0,0,0,1,TI,TEE,DEE,SEE,,,,,,,,,,,,,,,,,,,,,,,,,,,,,,,,,,,,,,,,,,,,,,,,,,,,,,,,,,,,,,,
,,,,,,,,,,,,,2,5d096a5687e03b000176305c,58,2021-03-25_05h30.54.495,CombinedMST_OA,2020.2.10,Win32,60,,,,,,,,,,,,,,,,,SyllableCheck/KAY.wav,,,,,,,,,,,,,,,,,,,,,2,1,2.995,0,1,1,2,1,KAY,KEE,KAY,HAY,,,,,,,,,,,,,,,,,,,,,,,,,,,,,,,,,,,,,,,,,,,,,,,,,,,,,,,,,,,,,,,
,,,,,,,,,,,,,3,5d096a5687e03b000176305c,58,2021-03-25_05h30.54.495,CombinedMST_OA,2020.2.10,Win32,60,,,,,,,,,,,,,,,,,SyllableCheck/BA.wav,,,,,,,,,,,,,,,,,,,,,3,1,1.825,0,2,2,4,1,BA,PA,BEE,BA,,,,,,,,,,,,,,,,,,,,,,,,,,,,,,,,,,,,,,,,,,,,,,,,,,,,,,,,,,,,,,,
,,,,,,,,,,,,,3,5d096a5687e03b000176305c,58,2021-03-25_05h30.54.495,CombinedMST_OA,2020.2.10,Win32,60,,,,,,,,,,,,,,,,,SyllableCheck/FU.wav,,,,,,,,,,,,,,,,,,,,,3,1,1.577,0,3,3,3,1,FU,VU,FO,FU,,,,,,,,,,,,,,,,,,,,,,,,,,,,,,,,,,,,,,,,,,,,,,,,,,,,,,,,,,,,,,,
,,,,,,,,,,,,,2,5d096a5687e03b000176305c,58,2021-03-25_05h30.54.495,CombinedMST_OA,2020.2.10,Win32,60,,,,,,,,,,,,,,,,,SyllableCheck/SU.wav,,,,,,,,,,,,,,,,,,,,,2,1,1.93,0,4,4,1,1,SU,SO,SU,ZU,,,,,,,,,,,,,,,,,,,,,,,,,,,,,,,,,,,,,,,,,,,,,,,,,,,,,,,,,,,,,,,
,,,,,,,,,,,,,,5d096a5687e03b000176305c,58,2021-03-25_05h30.54.495,CombinedMST_OA,2020.2.10,Win32,60,,,,,,,,,,,,,,,,,,,,,,,,,,,,,,,,,,,,,,,,,,,,,,,,,,0,0,0,0,1,,,,,,,,,,,,,,,,,,,,,,,,,,,,,,,,,,,,,,,,,,,,,,,,,,,,,,,,,,
,,,,,,,,,,,,,,5d096a5687e03b000176305c,58,2021-03-25_05h30.54.495,CombinedMST_OA,2020.2.10,Win32,60,,,,,,,,,,,,,,,,,,,,,,,,,,,,,,,,,,,,,,,,,,,,,,,,,,,,,,,0,0,0,0,1,1,0,,,,,,,,,,,,,,,,,,,,,,,,,,,,,,,,,,,,,,,,,,,,,,,,,,,
,,,,,,,,,,,,,,5d096a5687e03b000176305c,58,2021-03-25_05h30.54.495,CombinedMST_OA,2020.2.10,Win32,60,space,13.645,,,,,space,4.195,,,,,,,,,,,,,,,,,,,,,,,,,,,,,,,,,,,,,,,,,,,,,,,,,,,,,,space,13.575,space,8.629,2,1,3.928,0,0,0,0,1,Practice/Seagull_A.wav,2,3,NEW,Practice,,,,,,,,,,,,,,,,,,,,,,,,,,,,,,,,,,
,,,,,,,,,,,,,,5d096a5687e03b000176305c,58,2021-03-25_05h30.54.495,CombinedMST_OA,2020.2.10,Win32,60,,,,,,,,,,,,,,,,,,,,,,,,,,,,,,,,,,,,,,,,,,,,,,,,,,,,,,,,,,,,,,,,,,2,1,0.939,0,1,1,1,1,Practice/Skid_B.wav,2,3,NEW,Practice,,,,,,,,,,,,,,,,,,,,,,,,,,,,,,,,,,
,,,,,,,,,,,,,,5d096a5687e03b000176305c,58,2021-03-25_05h30.54.495,CombinedMST_OA,2020.2.10,Win32,60,,,,,,,,,,,,,,,,,,,,,,,,,,,,,,,,,,,,,,,,,,,,,,,,,,,,,,,,,,,,,,,,,,1,1,0.754,0,2,2,2,1,Practice/Seagull_A.wav,1,1,OLD,Practice,,,,,,,,,,,,,,,,,,,,,,,,,,,,,,,,,,
,,,,,,,,,,,,,,5d096a5687e03b000176305c,58,2021-03-25_05h30.54.495,CombinedMST_OA,2020.2.10,Win32,60,,,,,,,,,,,,,,,,,,,,,,,,,,,,,,,,,,,,,,,,,,,,,,,,,,,,,,,,,,,,,,,,,,2,1,0.703,0,3,3,3,1,Practice/Gargle_A.wav,2,3,NEW,Practice,,,,,,,,,,,,,,,,,,,,,,,,,,,,,,,,,,
,,,,,,,,,,,,,,5d096a5687e03b000176305c,58,2021-03-25_05h30.54.495,CombinedMST_OA,2020.2.10,Win32,60,,,,,,,,,,,,,,,,,,,,,,,,,,,,,,,,,,,,,,,,,,,,,,,,,,,,,,,,,,,,,,,,,,1,0,0.536,0,4,4,4,1,Practice/Gargle_B.wav,2,2,SIMILAR,Practice,,,,,,,,,,,,,,,,,,,,,,,,,,,,,,,,,,
,,,,,,,,,,,,,,5d096a5687e03b000176305c,58,2021-03-25_05h30.54.495,CombinedMST_OA,2020.2.10,Win32,60,,,,,,,,,,,,,,,,,,,,,,,,,,,,,,,,,,,,,,,,,,,,,,,,,,,,,,,,,,,,,,,,,,,,,,,,,,SoundMST/ManWhistle.wav,2,3,NEW,B,space,4.281,2,1,0.684,0,0,0,0,1,,,,,,,,,,,,,,,,,,,,,,,,
,,,,,,,,,,,,,,5d096a5687e03b000176305c,58,2021-03-25_05h30.54.495,CombinedMST_OA,2020.2.10,Win32,60,,,,,,,,,,,,,,,,,,,,,,,,,,,,,,,,,,,,,,,,,,,,,,,,,,,,,,,,,,,,,,,,,,,,,,,,,,SoundMST/Siren_E.wav,2,3,NEW,B,,,2,1,0.12,0,1,1,1,1,,,,,,,,,,,,,,,,,,,,,,,,
,,,,,,,,,,,,,,5d096a5687e03b000176305c,58,2021-03-25_05h30.54.495,CombinedMST_OA,2020.2.10,Win32,60,,,,,,,,,,,,,,,,,,,,,,,,,,,,,,,,,,,,,,,,,,,,,,,,,,,,,,,,,,,,,,,,,,,,,,,,,,SoundMST/Footsteps_C.wav,2,3,NEW,B,,,2,1,0.723,0,2,2,2,1,,,,,,,,,,,,,,,,,,,,,,,,
,,,,,,,,,,,,,,5d096a5687e03b000176305c,58,2021-03-25_05h30.54.495,CombinedMST_OA,2020.2.10,Win32,60,,,,,,,,,,,,,,,,,,,,,,,,,,,,,,,,,,,,,,,,,,,,,,,,,,,,,,,,,,,,,,,,,,,,,,,,,,SoundMST/Chicken_A.wav,2,3,NEW,B,,,2,1,0.678,0,3,3,3,1,,,,,,,,,,,,,,,,,,,,,,,,
,,,,,,,,,,,,,,5d096a5687e03b000176305c,58,2021-03-25_05h30.54.495,CombinedMST_OA,2020.2.10,Win32,60,,,,,,,,,,,,,,,,,,,,,,,,,,,,,,,,,,,,,,,,,,,,,,,,,,,,,,,,,,,,,,,,,,,,,,,,,,SoundMST/Phone_D.wav,2,3,NEW,B,,,2,1,0.505,0,4,4,4,1,,,,,,,,,,,,,,,,,,,,,,,,
,,,,,,,,,,,,,,5d096a5687e03b000176305c,58,2021-03-25_05h30.54.495,CombinedMST_OA,2020.2.10,Win32,60,,,,,,,,,,,,,,,,,,,,,,,,,,,,,,,,,,,,,,,,,,,,,,,,,,,,,,,,,,,,,,,,,,,,,,,,,,SoundMST/Cup.wav,2,3,NEW,B,,,2,1,0.538,0,5,5,5,1,,,,,,,,,,,,,,,,,,,,,,,,
,,,,,,,,,,,,,,5d096a5687e03b000176305c,58,2021-03-25_05h30.54.495,CombinedMST_OA,2020.2.10,Win32,60,,,,,,,,,,,,,,,,,,,,,,,,,,,,,,,,,,,,,,,,,,,,,,,,,,,,,,,,,,,,,,,,,,,,,,,,,,SoundMST/Bowlingpins.wav,2,3,NEW,B,,,2,1,0.512,0,6,6,6,1,,,,,,,,,,,,,,,,,,,,,,,,
,,,,,,,,,,,,,,5d096a5687e03b000176305c,58,2021-03-25_05h30.54.495,CombinedMST_OA,2020.2.10,Win32,60,,,,,,,,,,,,,,,,,,,,,,,,,,,,,,,,,,,,,,,,,,,,,,,,,,,,,,,,,,,,,,,,,,,,,,,,,,SoundMST/Bird_C.wav,2,3,NEW,B,,,2,1,0.625,0,7,7,7,1,,,,,,,,,,,,,,,,,,,,,,,,
,,,,,,,,,,,,,,5d096a5687e03b000176305c,58,2021-03-25_05h30.54.495,CombinedMST_OA,2020.2.10,Win32,60,,,,,,,,,,,,,,,,,,,,,,,,,,,,,,,,,,,,,,,,,,,,,,,,,,,,,,,,,,,,,,,,,,,,,,,,,,SoundMST/HairDryer_A.wav,2,3,NEW,B,,,2,1,0.59,0,8,8,8,1,,,,,,,,,,,,,,,,,,,,,,,,
,,,,,,,,,,,,,,5d096a5687e03b000176305c,58,2021-03-25_05h30.54.495,CombinedMST_OA,2020.2.10,Win32,60,,,,,,,,,,,,,,,,,,,,,,,,,,,,,,,,,,,,,,,,,,,,,,,,,,,,,,,,,,,,,,,,,,,,,,,,,,SoundMST/Faucet_A.wav,2,3,NEW,B,,,2,1,0.627,0,9,9,9,1,,,,,,,,,,,,,,,,,,,,,,,,
,,,,,,,,,,,,,,5d096a5687e03b000176305c,58,2021-03-25_05h30.54.495,CombinedMST_OA,2020.2.10,Win32,60,,,,,,,,,,,,,,,,,,,,,,,,,,,,,,,,,,,,,,,,,,,,,,,,,,,,,,,,,,,,,,,,,,,,,,,,,,SoundMST/Siren_A.wav,2,2,SIMILAR,B,,,2,1,0.472,0,10,10,10,1,,,,,,,,,,,,,,,,,,,,,,,,
,,,,,,,,,,,,,,5d096a5687e03b000176305c,58,2021-03-25_05h30.54.495,CombinedMST_OA,2020.2.10,Win32,60,,,,,,,,,,,,,,,,,,,,,,,,,,,,,,,,,,,,,,,,,,,,,,,,,,,,,,,,,,,,,,,,,,,,,,,,,,SoundMST/Laugh_A.wav,2,3,NEW,B,,,2,1,0.773,0,11,11,11,1,,,,,,,,,,,,,,,,,,,,,,,,
,,,,,,,,,,,,,,5d096a5687e03b000176305c,58,2021-03-25_05h30.54.495,CombinedMST_OA,2020.2.10,Win32,60,,,,,,,,,,,,,,,,,,,,,,,,,,,,,,,,,,,,,,,,,,,,,,,,,,,,,,,,,,,,,,,,,,,,,,,,,,SoundMST/ManWhistle.wav,1,1,OLD,B,,,2,0,0.606,0,12,12,12,1,,,,,,,,,,,,,,,,,,,,,,,,
,,,,,,,,,,,,,,5d096a5687e03b000176305c,58,2021-03-25_05h30.54.495,CombinedMST_OA,2020.2.10,Win32,60,,,,,,,,,,,,,,,,,,,,,,,,,,,,,,,,,,,,,,,,,,,,,,,,,,,,,,,,,,,,,,,,,,,,,,,,,,SoundMST/Cow.wav,2,3,NEW,B,,,2,1,0.54,0,13,13,13,1,,,,,,,,,,,,,,,,,,,,,,,,
,,,,,,,,,,,,,,5d096a5687e03b000176305c,58,2021-03-25_05h30.54.495,CombinedMST_OA,2020.2.10,Win32,60,,,,,,,,,,,,,,,,,,,,,,,,,,,,,,,,,,,,,,,,,,,,,,,,,,,,,,,,,,,,,,,,,,,,,,,,,,SoundMST/Cough_C.wav,2,3,NEW,B,,,2,1,0.489,0,14,14,14,1,,,,,,,,,,,,,,,,,,,,,,,,
,,,,,,,,,,,,,,5d096a5687e03b000176305c,58,2021-03-25_05h30.54.495,CombinedMST_OA,2020.2.10,Win32,60,,,,,,,,,,,,,,,,,,,,,,,,,,,,,,,,,,,,,,,,,,,,,,,,,,,,,,,,,,,,,,,,,,,,,,,,,,SoundMST/Phone_E.wav,2,2,SIMILAR,B,,,2,1,0.741,0,15,15,15,1,,,,,,,,,,,,,,,,,,,,,,,,
,,,,,,,,,,,,,,5d096a5687e03b000176305c,58,2021-03-25_05h30.54.495,CombinedMST_OA,2020.2.10,Win32,60,,,,,,,,,,,,,,,,,,,,,,,,,,,,,,,,,,,,,,,,,,,,,,,,,,,,,,,,,,,,,,,,,,,,,,,,,,SoundMST/Chime_B.wav,2,3,NEW,B,,,2,1,0.505,0,16,16,16,1,,,,,,,,,,,,,,,,,,,,,,,,
,,,,,,,,,,,,,,5d096a5687e03b000176305c,58,2021-03-25_05h30.54.495,CombinedMST_OA,2020.2.10,Win32,60,,,,,,,,,,,,,,,,,,,,,,,,,,,,,,,,,,,,,,,,,,,,,,,,,,,,,,,,,,,,,,,,,,,,,,,,,,SoundMST/Footsteps_F.wav,2,2,SIMILAR,B,,,2,1,0.588,0,17,17,17,1,,,,,,,,,,,,,,,,,,,,,,,,
,,,,,,,,,,,,,,5d096a5687e03b000176305c,58,2021-03-25_05h30.54.495,CombinedMST_OA,2020.2.10,Win32,60,,,,,,,,,,,,,,,,,,,,,,,,,,,,,,,,,,,,,,,,,,,,,,,,,,,,,,,,,,,,,,,,,,,,,,,,,,SoundMST/Toilet_B.wav,2,3,NEW,B,,,2,1,0.471,0,18,18,18,1,,,,,,,,,,,,,,,,,,,,,,,,
,,,,,,,,,,,,,,5d096a5687e03b000176305c,58,2021-03-25_05h30.54.495,CombinedMST_OA,2020.2.10,Win32,60,,,,,,,,,,,,,,,,,,,,,,,,,,,,,,,,,,,,,,,,,,,,,,,,,,,,,,,,,,,,,,,,,,,,,,,,,,SoundMST/Piano_D.wav,2,3,NEW,B,,,2,1,0.437,0,19,19,19,1,,,,,,,,,,,,,,,,,,,,,,,,
,,,,,,,,,,,,,,5d096a5687e03b000176305c,58,2021-03-25_05h30.54.495,CombinedMST_OA,2020.2.10,Win32,60,,,,,,,,,,,,,,,,,,,,,,,,,,,,,,,,,,,,,,,,,,,,,,,,,,,,,,,,,,,,,,,,,,,,,,,,,,SoundMST/Cup.wav,1,1,OLD,B,,,1,1,0.572,0,20,20,20,1,,,,,,,,,,,,,,,,,,,,,,,,
,,,,,,,,,,,,,,5d096a5687e03b000176305c,58,2021-03-25_05h30.54.495,CombinedMST_OA,2020.2.10,Win32,60,,,,,,,,,,,,,,,,,,,,,,,,,,,,,,,,,,,,,,,,,,,,,,,,,,,,,,,,,,,,,,,,,,,,,,,,,,SoundMST/HairDryer_A.wav,1,1,OLD,B,,,1,1,0.526,0,21,21,21,1,,,,,,,,,,,,,,,,,,,,,,,,
,,,,,,,,,,,,,,5d096a5687e03b000176305c,58,2021-03-25_05h30.54.495,CombinedMST_OA,2020.2.10,Win32,60,,,,,,,,,,,,,,,,,,,,,,,,,,,,,,,,,,,,,,,,,,,,,,,,,,,,,,,,,,,,,,,,,,,,,,,,,,SoundMST/Thunder_A.wav,2,3,NEW,B,,,2,1,0.509,0,22,22,22,1,,,,,,,,,,,,,,,,,,,,,,,,
,,,,,,,,,,,,,,5d096a5687e03b000176305c,58,2021-03-25_05h30.54.495,CombinedMST_OA,2020.2.10,Win32,60,,,,,,,,,,,,,,,,,,,,,,,,,,,,,,,,,,,,,,,,,,,,,,,,,,,,,,,,,,,,,,,,,,,,,,,,,,SoundMST/Chicken_A.wav,1,1,OLD,B,,,1,1,0.823,0,23,23,23,1,,,,,,,,,,,,,,,,,,,,,,,,
,,,,,,,,,,,,,,5d096a5687e03b000176305c,58,2021-03-25_05h30.54.495,CombinedMST_OA,2020.2.10,Win32,60,,,,,,,,,,,,,,,,,,,,,,,,,,,,,,,,,,,,,,,,,,,,,,,,,,,,,,,,,,,,,,,,,,,,,,,,,,SoundMST/Whistle_B.wav,2,3,NEW,B,,,2,1,0.472,0,24,24,24,1,,,,,,,,,,,,,,,,,,,,,,,,
,,,,,,,,,,,,,,5d096a5687e03b000176305c,58,2021-03-25_05h30.54.495,CombinedMST_OA,2020.2.10,Win32,60,,,,,,,,,,,,,,,,,,,,,,,,,,,,,,,,,,,,,,,,,,,,,,,,,,,,,,,,,,,,,,,,,,,,,,,,,,SoundMST/Bird_A.wav,2,2,SIMILAR,B,,,2,1,0.59,0,25,25,25,1,,,,,,,,,,,,,,,,,,,,,,,,
,,,,,,,,,,,,,,5d096a5687e03b000176305c,58,2021-03-25_05h30.54.495,CombinedMST_OA,2020.2.10,Win32,60,,,,,,,,,,,,,,,,,,,,,,,,,,,,,,,,,,,,,,,,,,,,,,,,,,,,,,,,,,,,,,,,,,,,,,,,,,SoundMST/Dog_H.wav,2,3,NEW,B,,,2,1,0.545,0,26,26,26,1,,,,,,,,,,,,,,,,,,,,,,,,
,,,,,,,,,,,,,,5d096a5687e03b000176305c,58,2021-03-25_05h30.54.495,CombinedMST_OA,2020.2.10,Win32,60,,,,,,,,,,,,,,,,,,,,,,,,,,,,,,,,,,,,,,,,,,,,,,,,,,,,,,,,,,,,,,,,,,,,,,,,,,SoundMST/Bowlingpins.wav,1,1,OLD,B,,,1,1,0.557,0,27,27,27,1,,,,,,,,,,,,,,,,,,,,,,,,
,,,,,,,,,,,,,,5d096a5687e03b000176305c,58,2021-03-25_05h30.54.495,CombinedMST_OA,2020.2.10,Win32,60,,,,,,,,,,,,,,,,,,,,,,,,,,,,,,,,,,,,,,,,,,,,,,,,,,,,,,,,,,,,,,,,,,,,,,,,,,SoundMST/Fireworks.wav,2,3,NEW,B,,,2,1,0.494,0,28,28,28,1,,,,,,,,,,,,,,,,,,,,,,,,
,,,,,,,,,,,,,,5d096a5687e03b000176305c,58,2021-03-25_05h30.54.495,CombinedMST_OA,2020.2.10,Win32,60,,,,,,,,,,,,,,,,,,,,,,,,,,,,,,,,,,,,,,,,,,,,,,,,,,,,,,,,,,,,,,,,,,,,,,,,,,SoundMST/Cow.wav,1,1,OLD,B,,,1,1,1.04,0,29,29,29,1,,,,,,,,,,,,,,,,,,,,,,,,
,,,,,,,,,,,,,,5d096a5687e03b000176305c,58,2021-03-25_05h30.54.495,CombinedMST_OA,2020.2.10,Win32,60,,,,,,,,,,,,,,,,,,,,,,,,,,,,,,,,,,,,,,,,,,,,,,,,,,,,,,,,,,,,,,,,,,,,,,,,,,SoundMST/Snore_C.wav,2,3,NEW,B,,,2,1,0.822,0,30,30,30,1,,,,,,,,,,,,,,,,,,,,,,,,
,,,,,,,,,,,,,,5d096a5687e03b000176305c,58,2021-03-25_05h30.54.495,CombinedMST_OA,2020.2.10,Win32,60,,,,,,,,,,,,,,,,,,,,,,,,,,,,,,,,,,,,,,,,,,,,,,,,,,,,,,,,,,,,,,,,,,,,,,,,,,SoundMST/Faucet_C.wav,2,2,SIMILAR,B,,,2,1,0.639,0,31,31,31,1,,,,,,,,,,,,,,,,,,,,,,,,
,,,,,,,,,,,,,,5d096a5687e03b000176305c,58,2021-03-25_05h30.54.495,CombinedMST_OA,2020.2.10,Win32,60,,,,,,,,,,,,,,,,,,,,,,,,,,,,,,,,,,,,,,,,,,,,,,,,,,,,,,,,,,,,,,,,,,,,,,,,,,SoundMST/Chime_A.wav,2,2,SIMILAR,B,,,1,0,0.422,0,32,32,32,1,,,,,,,,,,,,,,,,,,,,,,,,
,,,,,,,,,,,,,,5d096a5687e03b000176305c,58,2021-03-25_05h30.54.495,CombinedMST_OA,2020.2.10,Win32,60,,,,,,,,,,,,,,,,,,,,,,,,,,,,,,,,,,,,,,,,,,,,,,,,,,,,,,,,,,,,,,,,,,,,,,,,,,SoundMST/Cough_E.wav,2,2,SIMILAR,B,,,2,1,0.64,0,33,33,33,1,,,,,,,,,,,,,,,,,,,,,,,,
,,,,,,,,,,,,,,5d096a5687e03b000176305c,58,2021-03-25_05h30.54.495,CombinedMST_OA,2020.2.10,Win32,60,,,,,,,,,,,,,,,,,,,,,,,,,,,,,,,,,,,,,,,,,,,,,,,,,,,,,,,,,,,,,,,,,,,,,,,,,,SoundMST/Heartbeat.wav,2,3,NEW,B,,,2,1,0.505,0,34,34,34,1,,,,,,,,,,,,,,,,,,,,,,,,
,,,,,,,,,,,,,,5d096a5687e03b000176305c,58,2021-03-25_05h30.54.495,CombinedMST_OA,2020.2.10,Win32,60,,,,,,,,,,,,,,,,,,,,,,,,,,,,,,,,,,,,,,,,,,,,,,,,,,,,,,,,,,,,,,,,,,,,,,,,,,SoundMST/Laugh_D.wav,2,2,SIMILAR,B,,,2,1,0.477,0,35,35,35,1,,,,,,,,,,,,,,,,,,,,,,,,
,,,,,,,,,,,,,,5d096a5687e03b000176305c,58,2021-03-25_05h30.54.495,CombinedMST_OA,2020.2.10,Win32,60,,,,,,,,,,,,,,,,,,,,,,,,,,,,,,,,,,,,,,,,,,,,,,,,,,,,,,,,,,,,,,,,,,,,,,,,,,SoundMST/Cello.wav,2,3,NEW,B,,,2,1,0.488,0,36,36,36,1,,,,,,,,,,,,,,,,,,,,,,,,
,,,,,,,,,,,,,,5d096a5687e03b000176305c,58,2021-03-25_05h30.54.495,CombinedMST_OA,2020.2.10,Win32,60,,,,,,,,,,,,,,,,,,,,,,,,,,,,,,,,,,,,,,,,,,,,,,,,,,,,,,,,,,,,,,,,,,,,,,,,,,SoundMST/Piano_D.wav,1,1,OLD,B,,,1,1,0.946,0,37,37,37,1,,,,,,,,,,,,,,,,,,,,,,,,
,,,,,,,,,,,,,,5d096a5687e03b000176305c,58,2021-03-25_05h30.54.495,CombinedMST_OA,2020.2.10,Win32,60,,,,,,,,,,,,,,,,,,,,,,,,,,,,,,,,,,,,,,,,,,,,,,,,,,,,,,,,,,,,,,,,,,,,,,,,,,SoundMST/Clap_B.wav,2,3,NEW,B,,,2,1,0.574,0,38,38,38,1,,,,,,,,,,,,,,,,,,,,,,,,
,,,,,,,,,,,,,,5d096a5687e03b000176305c,58,2021-03-25_05h30.54.495,CombinedMST_OA,2020.2.10,Win32,60,,,,,,,,,,,,,,,,,,,,,,,,,,,,,,,,,,,,,,,,,,,,,,,,,,,,,,,,,,,,,,,,,,,,,,,,,,SoundMST/Bagpipe.wav,2,3,NEW,B,,,2,1,0.494,0,39,39,39,1,,,,,,,,,,,,,,,,,,,,,,,,
,,,,,,,,,,,,,,5d096a5687e03b000176305c,58,2021-03-25_05h30.54.495,CombinedMST_OA,2020.2.10,Win32,60,,,,,,,,,,,,,,,,,,,,,,,,,,,,,,,,,,,,,,,,,,,,,,,,,,,,,,,,,,,,,,,,,,,,,,,,,,SoundMST/Growl_G.wav,2,3,NEW,B,,,2,1,0.591,0,40,40,40,1,,,,,,,,,,,,,,,,,,,,,,,,
,,,,,,,,,,,,,,5d096a5687e03b000176305c,58,2021-03-25_05h30.54.495,CombinedMST_OA,2020.2.10,Win32,60,,,,,,,,,,,,,,,,,,,,,,,,,,,,,,,,,,,,,,,,,,,,,,,,,,,,,,,,,,,,,,,,,,,,,,,,,,SoundMST/Airplane_B.wav,2,3,NEW,B,,,2,1,0.907,0,41,41,41,1,,,,,,,,,,,,,,,,,,,,,,,,
,,,,,,,,,,,,,,5d096a5687e03b000176305c,58,2021-03-25_05h30.54.495,CombinedMST_OA,2020.2.10,Win32,60,,,,,,,,,,,,,,,,,,,,,,,,,,,,,,,,,,,,,,,,,,,,,,,,,,,,,,,,,,,,,,,,,,,,,,,,,,SoundMST/Toilet_B.wav,1,1,OLD,B,,,1,1,0.572,0,42,42,42,1,,,,,,,,,,,,,,,,,,,,,,,,
,,,,,,,,,,,,,,5d096a5687e03b000176305c,58,2021-03-25_05h30.54.495,CombinedMST_OA,2020.2.10,Win32,60,,,,,,,,,,,,,,,,,,,,,,,,,,,,,,,,,,,,,,,,,,,,,,,,,,,,,,,,,,,,,,,,,,,,,,,,,,SoundMST/Hammer_A.wav,2,3,NEW,B,,,2,1,0.504,0,43,43,43,1,,,,,,,,,,,,,,,,,,,,,,,,
,,,,,,,,,,,,,,5d096a5687e03b000176305c,58,2021-03-25_05h30.54.495,CombinedMST_OA,2020.2.10,Win32,60,,,,,,,,,,,,,,,,,,,,,,,,,,,,,,,,,,,,,,,,,,,,,,,,,,,,,,,,,,,,,,,,,,,,,,,,,,SoundMST/Goat_B.wav,2,3,NEW,B,,,2,1,0.489,0,44,44,44,1,,,,,,,,,,,,,,,,,,,,,,,,
,,,,,,,,,,,,,,5d096a5687e03b000176305c,58,2021-03-25_05h30.54.495,CombinedMST_OA,2020.2.10,Win32,60,,,,,,,,,,,,,,,,,,,,,,,,,,,,,,,,,,,,,,,,,,,,,,,,,,,,,,,,,,,,,,,,,,,,,,,,,,SoundMST/Coin_D.wav,2,3,NEW,B,,,2,1,0.506,0,45,45,45,1,,,,,,,,,,,,,,,,,,,,,,,,
,,,,,,,,,,,,,,5d096a5687e03b000176305c,58,2021-03-25_05h30.54.495,CombinedMST_OA,2020.2.10,Win32,60,,,,,,,,,,,,,,,,,,,,,,,,,,,,,,,,,,,,,,,,,,,,,,,,,,,,,,,,,,,,,,,,,,,,,,,,,,SoundMST/Fireworks.wav,1,1,OLD,B,,,2,0,0.929,0,46,46,46,1,,,,,,,,,,,,,,,,,,,,,,,,
,,,,,,,,,,,,,,5d096a5687e03b000176305c,58,2021-03-25_05h30.54.495,CombinedMST_OA,2020.2.10,Win32,60,,,,,,,,,,,,,,,,,,,,,,,,,,,,,,,,,,,,,,,,,,,,,,,,,,,,,,,,,,,,,,,,,,,,,,,,,,SoundMST/Donkey.wav,2,3,NEW,B,,,2,1,0.523,0,47,47,47,1,,,,,,,,,,,,,,,,,,,,,,,,
,,,,,,,,,,,,,,5d096a5687e03b000176305c,58,2021-03-25_05h30.54.495,CombinedMST_OA,2020.2.10,Win32,60,,,,,,,,,,,,,,,,,,,,,,,,,,,,,,,,,,,,,,,,,,,,,,,,,,,,,,,,,,,,,,,,,,,,,,,,,,SoundMST/Howl.wav,2,3,NEW,B,,,2,1,0.427,0,48,48,48,1,,,,,,,,,,,,,,,,,,,,,,,,
,,,,,,,,,,,,,,5d096a5687e03b000176305c,58,2021-03-25_05h30.54.495,CombinedMST_OA,2020.2.10,Win32,60,,,,,,,,,,,,,,,,,,,,,,,,,,,,,,,,,,,,,,,,,,,,,,,,,,,,,,,,,,,,,,,,,,,,,,,,,,SoundMST/Thunder_A.wav,1,1,OLD,B,,,2,0,0.504,0,49,49,49,1,,,,,,,,,,,,,,,,,,,,,,,,
,,,,,,,,,,,,,,5d096a5687e03b000176305c,58,2021-03-25_05h30.54.495,CombinedMST_OA,2020.2.10,Win32,60,,,,,,,,,,,,,,,,,,,,,,,,,,,,,,,,,,,,,,,,,,,,,,,,,,,,,,,,,,,,,,,,,,,,,,,,,,SoundMST/Whistle_C.wav,2,2,SIMILAR,B,,,2,1,0.453,0,50,50,50,1,,,,,,,,,,,,,,,,,,,,,,,,
,,,,,,,,,,,,,,5d096a5687e03b000176305c,58,2021-03-25_05h30.54.495,CombinedMST_OA,2020.2.10,Win32,60,,,,,,,,,,,,,,,,,,,,,,,,,,,,,,,,,,,,,,,,,,,,,,,,,,,,,,,,,,,,,,,,,,,,,,,,,,SoundMST/Helicopter_A.wav,2,3,NEW,B,,,2,1,0.539,0,51,51,51,1,,,,,,,,,,,,,,,,,,,,,,,,
,,,,,,,,,,,,,,5d096a5687e03b000176305c,58,2021-03-25_05h30.54.495,CombinedMST_OA,2020.2.10,Win32,60,,,,,,,,,,,,,,,,,,,,,,,,,,,,,,,,,,,,,,,,,,,,,,,,,,,,,,,,,,,,,,,,,,,,,,,,,,SoundMST/Dog_F.wav,2,2,SIMILAR,B,,,2,1,0.655,0,52,52,52,1,,,,,,,,,,,,,,,,,,,,,,,,
,,,,,,,,,,,,,,5d096a5687e03b000176305c,58,2021-03-25_05h30.54.495,CombinedMST_OA,2020.2.10,Win32,60,,,,,,,,,,,,,,,,,,,,,,,,,,,,,,,,,,,,,,,,,,,,,,,,,,,,,,,,,,,,,,,,,,,,,,,,,,SoundMST/Horse.wav,2,3,NEW,B,,,2,1,0.555,0,53,53,53,1,,,,,,,,,,,,,,,,,,,,,,,,
,,,,,,,,,,,,,,5d096a5687e03b000176305c,58,2021-03-25_05h30.54.495,CombinedMST_OA,2020.2.10,Win32,60,,,,,,,,,,,,,,,,,,,,,,,,,,,,,,,,,,,,,,,,,,,,,,,,,,,,,,,,,,,,,,,,,,,,,,,,,,SoundMST/Chomp_A.wav,2,3,NEW,B,,,2,1,0.504,0,54,54,54,1,,,,,,,,,,,,,,,,,,,,,,,,
,,,,,,,,,,,,,,5d096a5687e03b000176305c,58,2021-03-25_05h30.54.495,CombinedMST_OA,2020.2.10,Win32,60,,,,,,,,,,,,,,,,,,,,,,,,,,,,,,,,,,,,,,,,,,,,,,,,,,,,,,,,,,,,,,,,,,,,,,,,,,SoundMST/Heartbeat.wav,1,1,OLD,B,,,1,1,0.509,0,55,55,55,1,,,,,,,,,,,,,,,,,,,,,,,,
,,,,,,,,,,,,,,5d096a5687e03b000176305c,58,2021-03-25_05h30.54.495,CombinedMST_OA,2020.2.10,Win32,60,,,,,,,,,,,,,,,,,,,,,,,,,,,,,,,,,,,,,,,,,,,,,,,,,,,,,,,,,,,,,,,,,,,,,,,,,,SoundMST/Clap_C.wav,2,2,SIMILAR,B,,,1,0,0.472,0,56,56,56,1,,,,,,,,,,,,,,,,,,,,,,,,
,,,,,,,,,,,,,,5d096a5687e03b000176305c,58,2021-03-25_05h30.54.495,CombinedMST_OA,2020.2.10,Win32,60,,,,,,,,,,,,,,,,,,,,,,,,,,,,,,,,,,,,,,,,,,,,,,,,,,,,,,,,,,,,,,,,,,,,,,,,,,SoundMST/Crow_B.wav,2,3,NEW,B,,,2,1,0.491,0,57,57,57,1,,,,,,,,,,,,,,,,,,,,,,,,
,,,,,,,,,,,,,,5d096a5687e03b000176305c,58,2021-03-25_05h30.54.495,CombinedMST_OA,2020.2.10,Win32,60,,,,,,,,,,,,,,,,,,,,,,,,,,,,,,,,,,,,,,,,,,,,,,,,,,,,,,,,,,,,,,,,,,,,,,,,,,SoundMST/Growl_H.wav,2,2,SIMILAR,B,,,1,0,0.608,0,58,58,58,1,,,,,,,,,,,,,,,,,,,,,,,,
,,,,,,,,,,,,,,5d096a5687e03b000176305c,58,2021-03-25_05h30.54.495,CombinedMST_OA,2020.2.10,Win32,60,,,,,,,,,,,,,,,,,,,,,,,,,,,,,,,,,,,,,,,,,,,,,,,,,,,,,,,,,,,,,,,,,,,,,,,,,,SoundMST/Printer.wav,2,3,NEW,B,,,2,1,0.556,0,59,59,59,1,,,,,,,,,,,,,,,,,,,,,,,,
,,,,,,,,,,,,,,5d096a5687e03b000176305c,58,2021-03-25_05h30.54.495,CombinedMST_OA,2020.2.10,Win32,60,,,,,,,,,,,,,,,,,,,,,,,,,,,,,,,,,,,,,,,,,,,,,,,,,,,,,,,,,,,,,,,,,,,,,,,,,,SoundMST/Cello.wav,1,1,OLD,B,,,1,1,0.439,0,60,60,60,1,,,,,,,,,,,,,,,,,,,,,,,,
,,,,,,,,,,,,,,5d096a5687e03b000176305c,58,2021-03-25_05h30.54.495,CombinedMST_OA,2020.2.10,Win32,60,,,,,,,,,,,,,,,,,,,,,,,,,,,,,,,,,,,,,,,,,,,,,,,,,,,,,,,,,,,,,,,,,,,,,,,,,,SoundMST/Snore_E.wav,2,2,SIMILAR,B,,,1,0,0.691,0,61,61,61,1,,,,,,,,,,,,,,,,,,,,,,,,
,,,,,,,,,,,,,,5d096a5687e03b000176305c,58,2021-03-25_05h30.54.495,CombinedMST_OA,2020.2.10,Win32,60,,,,,,,,,,,,,,,,,,,,,,,,,,,,,,,,,,,,,,,,,,,,,,,,,,,,,,,,,,,,,,,,,,,,,,,,,,SoundMST/CarStart_E.wav,2,3,NEW,B,,,2,1,0.454,0,62,62,62,1,,,,,,,,,,,,,,,,,,,,,,,,
,,,,,,,,,,,,,,5d096a5687e03b000176305c,58,2021-03-25_05h30.54.495,CombinedMST_OA,2020.2.10,Win32,60,,,,,,,,,,,,,,,,,,,,,,,,,,,,,,,,,,,,,,,,,,,,,,,,,,,,,,,,,,,,,,,,,,,,,,,,,,SoundMST/Goat_C.wav,2,2,SIMILAR,B,,,2,1,0.707,0,63,63,63,1,,,,,,,,,,,,,,,,,,,,,,,,
,,,,,,,,,,,,,,5d096a5687e03b000176305c,58,2021-03-25_05h30.54.495,CombinedMST_OA,2020.2.10,Win32,60,,,,,,,,,,,,,,,,,,,,,,,,,,,,,,,,,,,,,,,,,,,,,,,,,,,,,,,,,,,,,,,,,,,,,,,,,,SoundMST/Coin_E.wav,2,2,SIMILAR,B,,,2,1,0.54,0,64,64,64,1,,,,,,,,,,,,,,,,,,,,,,,,
,,,,,,,,,,,,,,5d096a5687e03b000176305c,58,2021-03-25_05h30.54.495,CombinedMST_OA,2020.2.10,Win32,60,,,,,,,,,,,,,,,,,,,,,,,,,,,,,,,,,,,,,,,,,,,,,,,,,,,,,,,,,,,,,,,,,,,,,,,,,,SoundMST/Howl.wav,1,1,OLD,B,,,1,1,0.469,0,65,65,65,1,,,,,,,,,,,,,,,,,,,,,,,,
,,,,,,,,,,,,,,5d096a5687e03b000176305c,58,2021-03-25_05h30.54.495,CombinedMST_OA,2020.2.10,Win32,60,,,,,,,,,,,,,,,,,,,,,,,,,,,,,,,,,,,,,,,,,,,,,,,,,,,,,,,,,,,,,,,,,,,,,,,,,,SoundMST/Airplane_B.wav,1,1,OLD,B,,,1,1,0.308,0,66,66,66,1,,,,,,,,,,,,,,,,,,,,,,,,
,,,,,,,,,,,,,,5d096a5687e03b000176305c,58,2021-03-25_05h30.54.495,CombinedMST_OA,2020.2.10,Win32,60,,,,,,,,,,,,,,,,,,,,,,,,,,,,,,,,,,,,,,,,,,,,,,,,,,,,,,,,,,,,,,,,,,,,,,,,,,SoundMST/Mosquito_B.wav,1,1,OLD,B,,,2,0,0.379,0,67,67,67,1,,,,,,,,,,,,,,,,,,,,,,,,
,,,,,,,,,,,,,,5d096a5687e03b000176305c,58,2021-03-25_05h30.54.495,CombinedMST_OA,2020.2.10,Win32,60,,,,,,,,,,,,,,,,,,,,,,,,,,,,,,,,,,,,,,,,,,,,,,,,,,,,,,,,,,,,,,,,,,,,,,,,,,SoundMST/Droplet_B.wav,2,3,NEW,B,,,2,1,0.539,0,68,68,68,1,,,,,,,,,,,,,,,,,,,,,,,,
,,,,,,,,,,,,,,5d096a5687e03b000176305c,58,2021-03-25_05h30.54.495,CombinedMST_OA,2020.2.10,Win32,60,,,,,,,,,,,,,,,,,,,,,,,,,,,,,,,,,,,,,,,,,,,,,,,,,,,,,,,,,,,,,,,,,,,,,,,,,,SoundMST/Donkey.wav,1,1,OLD,B,,,1,1,0.505,0,69,69,69,1,,,,,,,,,,,,,,,,,,,,,,,,
,,,,,,,,,,,,,,5d096a5687e03b000176305c,58,2021-03-25_05h30.54.495,CombinedMST_OA,2020.2.10,Win32,60,,,,,,,,,,,,,,,,,,,,,,,,,,,,,,,,,,,,,,,,,,,,,,,,,,,,,,,,,,,,,,,,,,,,,,,,,,SoundMST/Guitar_B.wav,2,3,NEW,B,,,2,1,0.521,0,70,70,70,1,,,,,,,,,,,,,,,,,,,,,,,,
,,,,,,,,,,,,,,5d096a5687e03b000176305c,58,2021-03-25_05h30.54.495,CombinedMST_OA,2020.2.10,Win32,60,,,,,,,,,,,,,,,,,,,,,,,,,,,,,,,,,,,,,,,,,,,,,,,,,,,,,,,,,,,,,,,,,,,,,,,,,,SoundMST/Bagpipe.wav,1,1,OLD,B,,,1,1,0.456,0,71,71,71,1,,,,,,,,,,,,,,,,,,,,,,,,
,,,,,,,,,,,,,,5d096a5687e03b000176305c,58,2021-03-25_05h30.54.495,CombinedMST_OA,2020.2.10,Win32,60,,,,,,,,,,,,,,,,,,,,,,,,,,,,,,,,,,,,,,,,,,,,,,,,,,,,,,,,,,,,,,,,,,,,,,,,,,SoundMST/Hammer_A.wav,2,3,NEW,B,,,1,0,0.507,0,72,72,72,1,,,,,,,,,,,,,,,,,,,,,,,,
,,,,,,,,,,,,,,5d096a5687e03b000176305c,58,2021-03-25_05h30.54.495,CombinedMST_OA,2020.2.10,Win32,60,,,,,,,,,,,,,,,,,,,,,,,,,,,,,,,,,,,,,,,,,,,,,,,,,,,,,,,,,,,,,,,,,,,,,,,,,,SoundMST/Helicopter_A.wav,1,1,OLD,B,,,2,0,0.776,0,73,73,73,1,,,,,,,,,,,,,,,,,,,,,,,,
,,,,,,,,,,,,,,5d096a5687e03b000176305c,58,2021-03-25_05h30.54.495,CombinedMST_OA,2020.2.10,Win32,60,,,,,,,,,,,,,,,,,,,,,,,,,,,,,,,,,,,,,,,,,,,,,,,,,,,,,,,,,,,,,,,,,,,,,,,,,,SoundMST/Camera.wav,2,3,NEW,B,,,2,1,1.04,0,74,74,74,1,,,,,,,,,,,,,,,,,,,,,,,,
,,,,,,,,,,,,,,5d096a5687e03b000176305c,58,2021-03-25_05h30.54.495,CombinedMST_OA,2020.2.10,Win32,60,,,,,,,,,,,,,,,,,,,,,,,,,,,,,,,,,,,,,,,,,,,,,,,,,,,,,,,,,,,,,,,,,,,,,,,,,,SoundMST/Steam.wav,2,3,NEW,B,,,2,1,0.639,0,75,75,75,1,,,,,,,,,,,,,,,,,,,,,,,,
,,,,,,,,,,,,,,5d096a5687e03b000176305c,58,2021-03-25_05h30.54.495,CombinedMST_OA,2020.2.10,Win32,60,,,,,,,,,,,,,,,,,,,,,,,,,,,,,,,,,,,,,,,,,,,,,,,,,,,,,,,,,,,,,,,,,,,,,,,,,,SoundMST/Horse.wav,1,1,OLD,B,,,2,0,0.79,0,76,76,76,1,,,,,,,,,,,,,,,,,,,,,,,,
,,,,,,,,,,,,,,5d096a5687e03b000176305c,58,2021-03-25_05h30.54.495,CombinedMST_OA,2020.2.10,Win32,60,,,,,,,,,,,,,,,,,,,,,,,,,,,,,,,,,,,,,,,,,,,,,,,,,,,,,,,,,,,,,,,,,,,,,,,,,,SoundMST/Elephant_C.wav,2,3,NEW,B,,,2,1,0.488,0,77,77,77,1,,,,,,,,,,,,,,,,,,,,,,,,
,,,,,,,,,,,,,,5d096a5687e03b000176305c,58,2021-03-25_05h30.54.495,CombinedMST_OA,2020.2.10,Win32,60,,,,,,,,,,,,,,,,,,,,,,,,,,,,,,,,,,,,,,,,,,,,,,,,,,,,,,,,,,,,,,,,,,,,,,,,,,SoundMST/Printer.wav,1,1,OLD,B,,,1,1,0.423,0,78,78,78,1,,,,,,,,,,,,,,,,,,,,,,,,
,,,,,,,,,,,,,,5d096a5687e03b000176305c,58,2021-03-25_05h30.54.495,CombinedMST_OA,2020.2.10,Win32,60,,,,,,,,,,,,,,,,,,,,,,,,,,,,,,,,,,,,,,,,,,,,,,,,,,,,,,,,,,,,,,,,,,,,,,,,,,SoundMST/Crow_A.wav,2,2,SIMILAR,B,,,1,0,0.706,0,79,79,79,1,,,,,,,,,,,,,,,,,,,,,,,,
,,,,,,,,,,,,,,5d096a5687e03b000176305c,58,2021-03-25_05h30.54.495,CombinedMST_OA,2020.2.10,Win32,60,,,,,,,,,,,,,,,,,,,,,,,,,,,,,,,,,,,,,,,,,,,,,,,,,,,,,,,,,,,,,,,,,,,,,,,,,,SoundMST/Bubbles_A.wav,2,3,NEW,B,,,2,1,0.473,0,80,80,80,1,,,,,,,,,,,,,,,,,,,,,,,,
,,,,,,,,,,,,,,5d096a5687e03b000176305c,58,2021-03-25_05h30.54.495,CombinedMST_OA,2020.2.10,Win32,60,,,,,,,,,,,,,,,,,,,,,,,,,,,,,,,,,,,,,,,,,,,,,,,,,,,,,,,,,,,,,,,,,,,,,,,,,,SoundMST/Chomp_C.wav,2,2,SIMILAR,B,,,2,1,0.572,0,81,81,81,1,,,,,,,,,,,,,,,,,,,,,,,,
,,,,,,,,,,,,,,5d096a5687e03b000176305c,58,2021-03-25_05h30.54.495,CombinedMST_OA,2020.2.10,Win32,60,,,,,,,,,,,,,,,,,,,,,,,,,,,,,,,,,,,,,,,,,,,,,,,,,,,,,,,,,,,,,,,,,,,,,,,,,,SoundMST/Airhorn.wav,2,3,NEW,B,,,2,1,0.523,0,82,82,82,1,,,,,,,,,,,,,,,,,,,,,,,,
,,,,,,,,,,,,,,5d096a5687e03b000176305c,58,2021-03-25_05h30.54.495,CombinedMST_OA,2020.2.10,Win32,60,,,,,,,,,,,,,,,,,,,,,,,,,,,,,,,,,,,,,,,,,,,,,,,,,,,,,,,,,,,,,,,,,,,,,,,,,,SoundMST/Writing_A.wav,2,3,NEW,B,,,2,1,1.625,0,83,83,83,1,,,,,,,,,,,,,,,,,,,,,,,,
,,,,,,,,,,,,,,5d096a5687e03b000176305c,58,2021-03-25_05h30.54.495,CombinedMST_OA,2020.2.10,Win32,60,,,,,,,,,,,,,,,,,,,,,,,,,,,,,,,,,,,,,,,,,,,,,,,,,,,,,,,,,,,,,,,,,,,,,,,,,,SoundMST/Cuckoo_A.wav,2,3,NEW,B,,,2,1,0.556,0,84,84,84,1,,,,,,,,,,,,,,,,,,,,,,,,
,,,,,,,,,,,,,,5d096a5687e03b000176305c,58,2021-03-25_05h30.54.495,CombinedMST_OA,2020.2.10,Win32,60,,,,,,,,,,,,,,,,,,,,,,,,,,,,,,,,,,,,,,,,,,,,,,,,,,,,,,,,,,,,,,,,,,,,,,,,,,SoundMST/IceDrop.wav,2,3,NEW,B,,,2,1,1.293,0,85,85,85,1,,,,,,,,,,,,,,,,,,,,,,,,
,,,,,,,,,,,,,,5d096a5687e03b000176305c,58,2021-03-25_05h30.54.495,CombinedMST_OA,2020.2.10,Win32,60,,,,,,,,,,,,,,,,,,,,,,,,,,,,,,,,,,,,,,,,,,,,,,,,,,,,,,,,,,,,,,,,,,,,,,,,,,SoundMST/CarStart_D.wav,2,2,SIMILAR,B,,,2,1,0.505,0,86,86,86,1,,,,,,,,,,,,,,,,,,,,,,,,
,,,,,,,,,,,,,,5d096a5687e03b000176305c,58,2021-03-25_05h30.54.495,CombinedMST_OA,2020.2.10,Win32,60,,,,,,,,,,,,,,,,,,,,,,,,,,,,,,,,,,,,,,,,,,,,,,,,,,,,,,,,,,,,,,,,,,,,,,,,,,SoundMST/Baby_F.wav,2,3,NEW,B,,,2,1,1.108,0,87,87,87,1,,,,,,,,,,,,,,,,,,,,,,,,
,,,,,,,,,,,,,,5d096a5687e03b000176305c,58,2021-03-25_05h30.54.495,CombinedMST_OA,2020.2.10,Win32,60,,,,,,,,,,,,,,,,,,,,,,,,,,,,,,,,,,,,,,,,,,,,,,,,,,,,,,,,,,,,,,,,,,,,,,,,,,SoundMST/Puff_A.wav,2,3,NEW,B,,,2,1,0.522,0,88,88,88,1,,,,,,,,,,,,,,,,,,,,,,,,
,,,,,,,,,,,,,,5d096a5687e03b000176305c,58,2021-03-25_05h30.54.495,CombinedMST_OA,2020.2.10,Win32,60,,,,,,,,,,,,,,,,,,,,,,,,,,,,,,,,,,,,,,,,,,,,,,,,,,,,,,,,,,,,,,,,,,,,,,,,,,SoundMST/Droplet_B.wav,1,1,OLD,B,,,2,0,0.422,0,89,89,89,1,,,,,,,,,,,,,,,,,,,,,,,,
,,,,,,,,,,,,,,5d096a5687e03b000176305c,58,2021-03-25_05h30.54.495,CombinedMST_OA,2020.2.10,Win32,60,,,,,,,,,,,,,,,,,,,,,,,,,,,,,,,,,,,,,,,,,,,,,,,,,,,,,,,,,,,,,,,,,,,,,,,,,,SoundMST/Guitar_B.wav,1,1,OLD,B,,,1,1,0.538,0,90,90,90,1,,,,,,,,,,,,,,,,,,,,,,,,
,,,,,,,,,,,,,,5d096a5687e03b000176305c,58,2021-03-25_05h30.54.495,CombinedMST_OA,2020.2.10,Win32,60,,,,,,,,,,,,,,,,,,,,,,,,,,,,,,,,,,,,,,,,,,,,,,,,,,,,,,,,,,,,,,,,,,,,,,,,,,SoundMST/PaperRip.wav,2,3,NEW,B,,,2,1,0.543,0,91,91,91,1,,,,,,,,,,,,,,,,,,,,,,,,
,,,,,,,,,,,,,,5d096a5687e03b000176305c,58,2021-03-25_05h30.54.495,CombinedMST_OA,2020.2.10,Win32,60,,,,,,,,,,,,,,,,,,,,,,,,,,,,,,,,,,,,,,,,,,,,,,,,,,,,,,,,,,,,,,,,,,,,,,,,,,SoundMST/Mosquito_B.wav,1,1,OLD,B,,,1,1,0.405,0,92,92,92,1,,,,,,,,,,,,,,,,,,,,,,,,
,,,,,,,,,,,,,,5d096a5687e03b000176305c,58,2021-03-25_05h30.54.495,CombinedMST_OA,2020.2.10,Win32,60,,,,,,,,,,,,,,,,,,,,,,,,,,,,,,,,,,,,,,,,,,,,,,,,,,,,,,,,,,,,,,,,,,,,,,,,,,SoundMST/Trumpet_B.wav,2,3,NEW,B,,,2,1,0.411,0,93,93,93,1,,,,,,,,,,,,,,,,,,,,,,,,
,,,,,,,,,,,,,,5d096a5687e03b000176305c,58,2021-03-25_05h30.54.495,CombinedMST_OA,2020.2.10,Win32,60,,,,,,,,,,,,,,,,,,,,,,,,,,,,,,,,,,,,,,,,,,,,,,,,,,,,,,,,,,,,,,,,,,,,,,,,,,SoundMST/Bullfrog.wav,2,3,NEW,B,,,2,1,0.724,0,94,94,94,1,,,,,,,,,,,,,,,,,,,,,,,,
,,,,,,,,,,,,,,5d096a5687e03b000176305c,58,2021-03-25_05h30.54.495,CombinedMST_OA,2020.2.10,Win32,60,,,,,,,,,,,,,,,,,,,,,,,,,,,,,,,,,,,,,,,,,,,,,,,,,,,,,,,,,,,,,,,,,,,,,,,,,,SoundMST/Elephant_A.wav,2,2,SIMILAR,B,,,1,0,0.509,0,95,95,95,1,,,,,,,,,,,,,,,,,,,,,,,,
,,,,,,,,,,,,,,5d096a5687e03b000176305c,58,2021-03-25_05h30.54.495,CombinedMST_OA,2020.2.10,Win32,60,,,,,,,,,,,,,,,,,,,,,,,,,,,,,,,,,,,,,,,,,,,,,,,,,,,,,,,,,,,,,,,,,,,,,,,,,,SoundMST/Sneeze_B.wav,2,3,NEW,B,,,2,1,0.555,0,96,96,96,1,,,,,,,,,,,,,,,,,,,,,,,,
,,,,,,,,,,,,,,5d096a5687e03b000176305c,58,2021-03-25_05h30.54.495,CombinedMST_OA,2020.2.10,Win32,60,,,,,,,,,,,,,,,,,,,,,,,,,,,,,,,,,,,,,,,,,,,,,,,,,,,,,,,,,,,,,,,,,,,,,,,,,,SoundMST/Camera.wav,1,1,OLD,B,,,1,1,0.511,0,97,97,97,1,,,,,,,,,,,,,,,,,,,,,,,,
,,,,,,,,,,,,,,5d096a5687e03b000176305c,58,2021-03-25_05h30.54.495,CombinedMST_OA,2020.2.10,Win32,60,,,,,,,,,,,,,,,,,,,,,,,,,,,,,,,,,,,,,,,,,,,,,,,,,,,,,,,,,,,,,,,,,,,,,,,,,,SoundMST/Cat_A.wav,2,3,NEW,B,,,2,1,0.489,0,98,98,98,1,,,,,,,,,,,,,,,,,,,,,,,,
,,,,,,,,,,,,,,5d096a5687e03b000176305c,58,2021-03-25_05h30.54.495,CombinedMST_OA,2020.2.10,Win32,60,,,,,,,,,,,,,,,,,,,,,,,,,,,,,,,,,,,,,,,,,,,,,,,,,,,,,,,,,,,,,,,,,,,,,,,,,,SoundMST/Steam.wav,1,1,OLD,B,,,1,1,0.454,0,99,99,99,1,,,,,,,,,,,,,,,,,,,,,,,,
,,,,,,,,,,,,,,5d096a5687e03b000176305c,58,2021-03-25_05h30.54.495,CombinedMST_OA,2020.2.10,Win32,60,,,,,,,,,,,,,,,,,,,,,,,,,,,,,,,,,,,,,,,,,,,,,,,,,,,,,,,,,,,,,,,,,,,,,,,,,,SoundMST/Writing_C.wav,2,2,SIMILAR,B,,,2,1,0.473,0,100,100,100,1,,,,,,,,,,,,,,,,,,,,,,,,
,,,,,,,,,,,,,,5d096a5687e03b000176305c,58,2021-03-25_05h30.54.495,CombinedMST_OA,2020.2.10,Win32,60,,,,,,,,,,,,,,,,,,,,,,,,,,,,,,,,,,,,,,,,,,,,,,,,,,,,,,,,,,,,,,,,,,,,,,,,,,SoundMST/IceDrop.wav,1,1,OLD,B,,,1,1,0.472,0,101,101,101,1,,,,,,,,,,,,,,,,,,,,,,,,
,,,,,,,,,,,,,,5d096a5687e03b000176305c,58,2021-03-25_05h30.54.495,CombinedMST_OA,2020.2.10,Win32,60,,,,,,,,,,,,,,,,,,,,,,,,,,,,,,,,,,,,,,,,,,,,,,,,,,,,,,,,,,,,,,,,,,,,,,,,,,SoundMST/Slurp.wav,2,3,NEW,B,,,2,1,0.555,0,102,102,102,1,,,,,,,,,,,,,,,,,,,,,,,,
,,,,,,,,,,,,,,5d096a5687e03b000176305c,58,2021-03-25_05h30.54.495,CombinedMST_OA,2020.2.10,Win32,60,,,,,,,,,,,,,,,,,,,,,,,,,,,,,,,,,,,,,,,,,,,,,,,,,,,,,,,,,,,,,,,,,,,,,,,,,,SoundMST/Baby_E.wav,2,2,SIMILAR,B,,,1,0,0.84,0,103,103,103,1,,,,,,,,,,,,,,,,,,,,,,,,
,,,,,,,,,,,,,,5d096a5687e03b000176305c,58,2021-03-25_05h30.54.495,CombinedMST_OA,2020.2.10,Win32,60,,,,,,,,,,,,,,,,,,,,,,,,,,,,,,,,,,,,,,,,,,,,,,,,,,,,,,,,,,,,,,,,,,,,,,,,,,SoundMST/DialTone.wav,2,3,NEW,B,,,2,1,0.407,0,104,104,104,1,,,,,,,,,,,,,,,,,,,,,,,,
,,,,,,,,,,,,,,5d096a5687e03b000176305c,58,2021-03-25_05h30.54.495,CombinedMST_OA,2020.2.10,Win32,60,,,,,,,,,,,,,,,,,,,,,,,,,,,,,,,,,,,,,,,,,,,,,,,,,,,,,,,,,,,,,,,,,,,,,,,,,,SoundMST/Puff_A.wav,1,1,OLD,B,,,1,1,0.427,0,105,105,105,1,,,,,,,,,,,,,,,,,,,,,,,,
,,,,,,,,,,,,,,5d096a5687e03b000176305c,58,2021-03-25_05h30.54.495,CombinedMST_OA,2020.2.10,Win32,60,,,,,,,,,,,,,,,,,,,,,,,,,,,,,,,,,,,,,,,,,,,,,,,,,,,,,,,,,,,,,,,,,,,,,,,,,,SoundMST/Buzz.wav,2,3,NEW,B,,,2,1,0.473,0,106,106,106,1,,,,,,,,,,,,,,,,,,,,,,,,
,,,,,,,,,,,,,,5d096a5687e03b000176305c,58,2021-03-25_05h30.54.495,CombinedMST_OA,2020.2.10,Win32,60,,,,,,,,,,,,,,,,,,,,,,,,,,,,,,,,,,,,,,,,,,,,,,,,,,,,,,,,,,,,,,,,,,,,,,,,,,SoundMST/Airhorn.wav,1,1,OLD,B,,,1,1,0.439,0,107,107,107,1,,,,,,,,,,,,,,,,,,,,,,,,
,,,,,,,,,,,,,,5d096a5687e03b000176305c,58,2021-03-25_05h30.54.495,CombinedMST_OA,2020.2.10,Win32,60,,,,,,,,,,,,,,,,,,,,,,,,,,,,,,,,,,,,,,,,,,,,,,,,,,,,,,,,,,,,,,,,,,,,,,,,,,SoundMST/Sleighbells_B.wav,2,3,NEW,B,,,2,1,0.506,0,108,108,108,1,,,,,,,,,,,,,,,,,,,,,,,,
,,,,,,,,,,,,,,5d096a5687e03b000176305c,58,2021-03-25_05h30.54.495,CombinedMST_OA,2020.2.10,Win32,60,,,,,,,,,,,,,,,,,,,,,,,,,,,,,,,,,,,,,,,,,,,,,,,,,,,,,,,,,,,,,,,,,,,,,,,,,,SoundMST/Cuckoo_A.wav,1,1,OLD,B,,,1,1,1.17,0,109,109,109,1,,,,,,,,,,,,,,,,,,,,,,,,
,,,,,,,,,,,,,,5d096a5687e03b000176305c,58,2021-03-25_05h30.54.495,CombinedMST_OA,2020.2.10,Win32,60,,,,,,,,,,,,,,,,,,,,,,,,,,,,,,,,,,,,,,,,,,,,,,,,,,,,,,,,,,,,,,,,,,,,,,,,,,SoundMST/Wind_B.wav,2,3,NEW,B,,,2,1,0.472,0,110,110,110,1,,,,,,,,,,,,,,,,,,,,,,,,
,,,,,,,,,,,,,,5d096a5687e03b000176305c,58,2021-03-25_05h30.54.495,CombinedMST_OA,2020.2.10,Win32,60,,,,,,,,,,,,,,,,,,,,,,,,,,,,,,,,,,,,,,,,,,,,,,,,,,,,,,,,,,,,,,,,,,,,,,,,,,SoundMST/Typing.wav,2,3,NEW,B,,,2,1,0.859,0,111,111,111,1,,,,,,,,,,,,,,,,,,,,,,,,
,,,,,,,,,,,,,,5d096a5687e03b000176305c,58,2021-03-25_05h30.54.495,CombinedMST_OA,2020.2.10,Win32,60,,,,,,,,,,,,,,,,,,,,,,,,,,,,,,,,,,,,,,,,,,,,,,,,,,,,,,,,,,,,,,,,,,,,,,,,,,SoundMST/Bubbles_B.wav,2,2,SIMILAR,B,,,2,1,0.474,0,112,112,112,1,,,,,,,,,,,,,,,,,,,,,,,,
,,,,,,,,,,,,,,5d096a5687e03b000176305c,58,2021-03-25_05h30.54.495,CombinedMST_OA,2020.2.10,Win32,60,,,,,,,,,,,,,,,,,,,,,,,,,,,,,,,,,,,,,,,,,,,,,,,,,,,,,,,,,,,,,,,,,,,,,,,,,,SoundMST/Duck_A.wav,2,3,NEW,B,,,2,1,0.523,0,113,113,113,1,,,,,,,,,,,,,,,,,,,,,,,,
,,,,,,,,,,,,,,5d096a5687e03b000176305c,58,2021-03-25_05h30.54.495,CombinedMST_OA,2020.2.10,Win32,60,,,,,,,,,,,,,,,,,,,,,,,,,,,,,,,,,,,,,,,,,,,,,,,,,,,,,,,,,,,,,,,,,,,,,,,,,,SoundMST/Trumpet_B.wav,1,1,OLD,B,,,1,1,0.44,0,114,114,114,1,,,,,,,,,,,,,,,,,,,,,,,,
,,,,,,,,,,,,,,5d096a5687e03b000176305c,58,2021-03-25_05h30.54.495,CombinedMST_OA,2020.2.10,Win32,60,,,,,,,,,,,,,,,,,,,,,,,,,,,,,,,,,,,,,,,,,,,,,,,,,,,,,,,,,,,,,,,,,,,,,,,,,,SoundMST/PaperRip.wav,1,1,OLD,B,,,2,0,0.607,0,115,115,115,1,,,,,,,,,,,,,,,,,,,,,,,,
,,,,,,,,,,,,,,5d096a5687e03b000176305c,58,2021-03-25_05h30.54.495,CombinedMST_OA,2020.2.10,Win32,60,,,,,,,,,,,,,,,,,,,,,,,,,,,,,,,,,,,,,,,,,,,,,,,,,,,,,,,,,,,,,,,,,,,,,,,,,,SoundMST/Sneeze_B.wav,1,1,OLD,B,,,1,1,0.521,0,116,116,116,1,,,,,,,,,,,,,,,,,,,,,,,,
,,,,,,,,,,,,,,5d096a5687e03b000176305c,58,2021-03-25_05h30.54.495,CombinedMST_OA,2020.2.10,Win32,60,,,,,,,,,,,,,,,,,,,,,,,,,,,,,,,,,,,,,,,,,,,,,,,,,,,,,,,,,,,,,,,,,,,,,,,,,,SoundMST/Pour_B.wav,2,3,NEW,B,,,2,1,0.44,0,117,117,117,1,,,,,,,,,,,,,,,,,,,,,,,,
,,,,,,,,,,,,,,5d096a5687e03b000176305c,58,2021-03-25_05h30.54.495,CombinedMST_OA,2020.2.10,Win32,60,,,,,,,,,,,,,,,,,,,,,,,,,,,,,,,,,,,,,,,,,,,,,,,,,,,,,,,,,,,,,,,,,,,,,,,,,,SoundMST/Cat_A.wav,1,1,OLD,B,,,1,1,0.59,0,118,118,118,1,,,,,,,,,,,,,,,,,,,,,,,,
,,,,,,,,,,,,,,5d096a5687e03b000176305c,58,2021-03-25_05h30.54.495,CombinedMST_OA,2020.2.10,Win32,60,,,,,,,,,,,,,,,,,,,,,,,,,,,,,,,,,,,,,,,,,,,,,,,,,,,,,,,,,,,,,,,,,,,,,,,,,,SoundMST/Slurp.wav,1,1,OLD,B,,,1,1,0.523,0,119,119,119,1,,,,,,,,,,,,,,,,,,,,,,,,
,,,,,,,,,,,,,,5d096a5687e03b000176305c,58,2021-03-25_05h30.54.495,CombinedMST_OA,2020.2.10,Win32,60,,,,,,,,,,,,,,,,,,,,,,,,,,,,,,,,,,,,,,,,,,,,,,,,,,,,,,,,,,,,,,,,,,,,,,,,,,SoundMST/Bullfrog.wav,1,1,OLD,B,,,1,1,0.59,0,120,120,120,1,,,,,,,,,,,,,,,,,,,,,,,,
,,,,,,,,,,,,,,5d096a5687e03b000176305c,58,2021-03-25_05h30.54.495,CombinedMST_OA,2020.2.10,Win32,60,,,,,,,,,,,,,,,,,,,,,,,,,,,,,,,,,,,,,,,,,,,,,,,,,,,,,,,,,,,,,,,,,,,,,,,,,,SoundMST/Wind_B.wav,1,1,OLD,B,,,1,1,0.374,0,121,121,121,1,,,,,,,,,,,,,,,,,,,,,,,,
,,,,,,,,,,,,,,5d096a5687e03b000176305c,58,2021-03-25_05h30.54.495,CombinedMST_OA,2020.2.10,Win32,60,,,,,,,,,,,,,,,,,,,,,,,,,,,,,,,,,,,,,,,,,,,,,,,,,,,,,,,,,,,,,,,,,,,,,,,,,,SoundMST/Duck_B.wav,2,2,SIMILAR,B,,,1,0,1.006,0,122,122,122,1,,,,,,,,,,,,,,,,,,,,,,,,
,,,,,,,,,,,,,,5d096a5687e03b000176305c,58,2021-03-25_05h30.54.495,CombinedMST_OA,2020.2.10,Win32,60,,,,,,,,,,,,,,,,,,,,,,,,,,,,,,,,,,,,,,,,,,,,,,,,,,,,,,,,,,,,,,,,,,,,,,,,,,SoundMST/DialTone.wav,1,1,OLD,B,,,1,1,0.472,0,123,123,123,1,,,,,,,,,,,,,,,,,,,,,,,,
,,,,,,,,,,,,,,5d096a5687e03b000176305c,58,2021-03-25_05h30.54.495,CombinedMST_OA,2020.2.10,Win32,60,,,,,,,,,,,,,,,,,,,,,,,,,,,,,,,,,,,,,,,,,,,,,,,,,,,,,,,,,,,,,,,,,,,,,,,,,,SoundMST/Buzz.wav,1,1,OLD,B,,,1,1,0.473,0,124,124,124,1,,,,,,,,,,,,,,,,,,,,,,,,
,,,,,,,,,,,,,,5d096a5687e03b000176305c,58,2021-03-25_05h30.54.495,CombinedMST_OA,2020.2.10,Win32,60,,,,,,,,,,,,,,,,,,,,,,,,,,,,,,,,,,,,,,,,,,,,,,,,,,,,,,,,,,,,,,,,,,,,,,,,,,SoundMST/Pour_C.wav,2,2,SIMILAR,B,,,1,0,1.944,0,125,125,125,1,,,,,,,,,,,,,,,,,,,,,,,,
,,,,,,,,,,,,,,5d096a5687e03b000176305c,58,2021-03-25_05h30.54.495,CombinedMST_OA,2020.2.10,Win32,60,,,,,,,,,,,,,,,,,,,,,,,,,,,,,,,,,,,,,,,,,,,,,,,,,,,,,,,,,,,,,,,,,,,,,,,,,,SoundMST/Typing.wav,1,1,OLD,B,,,2,0,0.842,0,126,126,126,1,,,,,,,,,,,,,,,,,,,,,,,,
,,,,,,,,,,,,,,5d096a5687e03b000176305c,58,2021-03-25_05h30.54.495,CombinedMST_OA,2020.2.10,Win32,60,,,,,,,,,,,,,,,,,,,,,,,,,,,,,,,,,,,,,,,,,,,,,,,,,,,,,,,,,,,,,,,,,,,,,,,,,,SoundMST/Sleighbells_B.wav,1,1,OLD,B,,,1,1,0.505,0,127,127,127,1,,,,,,,,,,,,,,,,,,,,,,,,
,,,,,,,,,,,,,,5d096a5687e03b000176305c,58,2021-03-25_05h30.54.495,CombinedMST_OA,2020.2.10,Win32,60,,,,,,,,,,,,,,,,,,,,,,,,,,,,,,,,,,,,,,,,,,,,,,,,,,,,,,,,,,,,,,,,,,,,,,,,,,,,,,,,,,,,,,,,,return,9.869,Pizza,0,0,0,0,1,,,,,,,,,,,,,,,,
,,,,,,,,,,,,,,5d096a5687e03b000176305c,58,2021-03-25_05h30.54.495,CombinedMST_OA,2020.2.10,Win32,60,,,,,,,,,,,,,,,,,,,,,,,,,,,,,,,,,,,,,,,,,,,,,,,,,,,,,,,0,1,1,1,1,0,1,,,,,,,,,,,,,,,,,,,,,,,,,,,,,,,,,,,,,,,,,,,,,,,,,,,
,,,,,,,,,,,,,,5d096a5687e03b000176305c,58,2021-03-25_05h30.54.495,CombinedMST_OA,2020.2.10,Win32,60,,,,,,,,,,,,,,,,,,,,,,,,,,,,,,,,,,,,,,,,,,,,,,,,,,,,,,,,,,,,,,,,,,,,,,,,,,,,,,,,,,,,,,,,,,,,,,,,,space,24.144,space,18.507,return,15.492,Chalk on blackboard,0,0,0,27,1,SoundMST/Writing_A.wav,SIMILAR,,
,,,,,,,,,,,,,,5d096a5687e03b000176305c,58,2021-03-25_05h30.54.495,CombinedMST_OA,2020.2.10,Win32,60,,,,,,,,,,,,,,,,,,,,,,,,,,,,,,,,,,,,,,,,,,,,,,,,,,,,,,,,,,,,,,,,,,,,,,,,,,,,,,,,,,,,,,,,,,,,,,,,,,,,,return,11.694, Police siren,0,1,1,14,1,SoundMST/Siren_A.wav,SIMILAR,,
,,,,,,,,,,,,,,5d096a5687e03b000176305c,58,2021-03-25_05h30.54.495,CombinedMST_OA,2020.2.10,Win32,60,,,,,,,,,,,,,,,,,,,,,,,,,,,,,,,,,,,,,,,,,,,,,,,,,,,,,,,,,,,,,,,,,,,,,,,,,,,,,,,,,,,,,,,,,,,,,,,,,,,,,return,15.42, Old telephone ringing,0,2,2,13,1,SoundMST/Phone_E.wav,SIMILAR,,
,,,,,,,,,,,,,,5d096a5687e03b000176305c,58,2021-03-25_05h30.54.495,CombinedMST_OA,2020.2.10,Win32,60,,,,,,,,,,,,,,,,,,,,,,,,,,,,,,,,,,,,,,,,,,,,,,,,,,,,,,,,,,,,,,,,,,,,,,,,,,,,,,,,,,,,,,,,,,,,,,,,,,,,,return,16.483, Nail being hammered in,0,3,3,76,1,SoundMST/Hammer_A.wav,SAME,,
,,,,,,,,,,,,,,5d096a5687e03b000176305c,58,2021-03-25_05h30.54.495,CombinedMST_OA,2020.2.10,Win32,60,,,,,,,,,,,,,,,,,,,,,,,,,,,,,,,,,,,,,,,,,,,,,,,,,,,,,,,,,,,,,,,,,,,,,,,,,,,,,,,,,,,,,,,,,,,,,,,,,,,,,return,16.343, Notes on a piano,0,4,4,77,1,SoundMST/Piano_D.wav,SAME,,
,,,,,,,,,,,,,,5d096a5687e03b000176305c,58,2021-03-25_05h30.54.495,CombinedMST_OA,2020.2.10,Win32,60,,,,,,,,,,,,,,,,,,,,,,,,,,,,,,,,,,,,,,,,,,,,,,,,,,,,,,,,,,,,,,,,,,,,,,,,,,,,,,,,,,,,,,,,,,,,,,,,,,,,,return,10.055, Cuckoo clock,0,5,5,75,1,SoundMST/Cuckoo_A.wav,SAME,,
,,,,,,,,,,,,,,5d096a5687e03b000176305c,58,2021-03-25_05h30.54.495,CombinedMST_OA,2020.2.10,Win32,60,,,,,,,,,,,,,,,,,,,,,,,,,,,,,,,,,,,,,,,,,,,,,,,,,,,,,,,,,,,,,,,,,,,,,,,,,,,,,,,,,,,,,,,,,,,,,,,,,,,,,return,8.114, Squeaky toy,0,6,6,58,1,SoundMST/Puff_A.wav,SAME,,
,,,,,,,,,,,,,,5d096a5687e03b000176305c,58,2021-03-25_05h30.54.495,CombinedMST_OA,2020.2.10,Win32,60,,,,,,,,,,,,,,,,,,,,,,,,,,,,,,,,,,,,,,,,,,,,,,,,,,,,,,,,,,,,,,,,,,,,,,,,,,,,,,,,,,,,,,,,,,,,,,,,,,,,,return,17.567,Wind in Arctic tundra,0,7,7,55,1,SoundMST/Wind_B.wav,SAME,,
,,,,,,,,,,,,,,5d096a5687e03b000176305c,58,2021-03-25_05h30.54.495,CombinedMST_OA,2020.2.10,Win32,60,,,,,,,,,,,,,,,,,,,,,,,,,,,,,,,,,,,,,,,,,,,,,,,,,,,,,,,,,,,,,,,,,,,,,,,,,,,,,,,,,,,,,,,,,,,,,,,,,,,,,return,13.483, Horse neighing,0,8,8,82,1,SoundMST/Horse.wav,SAME,,
,,,,,,,,,,,,,,5d096a5687e03b000176305c,58,2021-03-25_05h30.54.495,CombinedMST_OA,2020.2.10,Win32,60,,,,,,,,,,,,,,,,,,,,,,,,,,,,,,,,,,,,,,,,,,,,,,,,,,,,,,,,,,,,,,,,,,,,,,,,,,,,,,,,,,,,,,,,,,,,,,,,,,,,,return,7.78, Paper being torn,0,9,9,81,1,SoundMST/PaperRip.wav,SAME,,
,,,,,,,,,,,,,,5d096a5687e03b000176305c,58,2021-03-25_05h30.54.495,CombinedMST_OA,2020.2.10,Win32,60,,,,,,,,,,,,,,,,,,,,,,,,,,,,,,,,,,,,,,,,,,,,,,,,,,,,,,,,,,,,,,,,,,,,,,,,,,,,,,,,,,,,,,,,,,,,,,,,,,,,,return,6.636, Cow mooing,0,10,10,71,1,SoundMST/Cow.wav,SAME,,
,,,,,,,,,,,,,,5d096a5687e03b000176305c,58,2021-03-25_05h30.54.495,CombinedMST_OA,2020.2.10,Win32,60,,,,,,,,,,,,,,,,,,,,,,,,,,,,,,,,,,,,,,,,,,,,,,,,,,,,,,,,,,,,,,,,,,,,,,,,,,,,,,,,,,,,,,,,,,,,,,,,,,,,,return,14.588, Fizzy drink being poured,0,11,11,25,1,SoundMST/Pour_B.wav,SIMILAR,,
,,,,,,,,,,,,,,5d096a5687e03b000176305c,58,2021-03-25_05h30.54.495,CombinedMST_OA,2020.2.10,Win32,60,,,,,,,,,,,,,,,,,,,,,,,,,,,,,,,,,,,,,,,,,,,,,,,,,,,,,,,,,,,,,,,,,,,,,,,,,,,,,,,,,,,,,,,,,,,,,,,,,,,,,return,10.042, Bird singing,0,12,12,7,1,SoundMST/Bird_A.wav,SIMILAR,,
,,,,,,,,,,,,,,5d096a5687e03b000176305c,58,2021-03-25_05h30.54.495,CombinedMST_OA,2020.2.10,Win32,60,,,,,,,,,,,,,,,,,,,,,,,,,,,,,,,,,,,,,,,,,,,,,,,,,,,,,,,,,,,,,,,,,,,,,,,,,,,,,,,,,,,,,,,,,,,,,,,,,,,,,return,9.221, Person whistling,0,13,13,67,1,SoundMST/ManWhistle.wav,SAME,,
,,,,,,,,,,,,,,5d096a5687e03b000176305c,58,2021-03-25_05h30.54.495,CombinedMST_OA,2020.2.10,Win32,60,,,,,,,,,,,,,,,,,,,,,,,,,,,,,,,,,,,,,,,,,,,,,,,,,,,,,,,,,,,,,,,,,,,,,,,,,,,,,,,,,,,,,,,,,,,,,,,,,,,,,return,8.883, People laughing,0,14,14,9,1,SoundMST/Laugh_D.wav,SIMILAR,,
,,,,,,,,,,,,,,5d096a5687e03b000176305c,58,2021-03-25_05h30.54.495,CombinedMST_OA,2020.2.10,Win32,60,,,,,,,,,,,,,,,,,,,,,,,,,,,,,,,,,,,,,,,,,,,,,,,,,,,,,,,,,,,,,,,,,,,,,,,,,,,,,,,,,,,,,,,,,,,,,,,,,,,,,return,8.064, Chicken clucking,0,15,15,60,1,SoundMST/Chicken_A.wav,SAME,,
,,,,,,,,,,,,,,5d096a5687e03b000176305c,58,2021-03-25_05h30.54.495,CombinedMST_OA,2020.2.10,Win32,60,,,,,,,,,,,,,,,,,,,,,,,,,,,,,,,,,,,,,,,,,,,,,,,,,,,,,,,,,,,,,,,,,,,,,,,,,,,,,,,,,,,,,,,,,,,,,,,,,,,,,return,7.495, Fireworks,0,16,16,78,1,SoundMST/Fireworks.wav,SAME,,
,,,,,,,,,,,,,,5d096a5687e03b000176305c,58,2021-03-25_05h30.54.495,CombinedMST_OA,2020.2.10,Win32,60,,,,,,,,,,,,,,,,,,,,,,,,,,,,,,,,,,,,,,,,,,,,,,,,,,,,,,,,,,,,,,,,,,,,,,,,,,,,,,,,,,,,,,,,,,,,,,,,,,,,,return,19.871, Vuvuzela being blown,0,17,17,70,1,SoundMST/Airhorn.wav,SAME,,
,,,,,,,,,,,,,,5d096a5687e03b000176305c,58,2021-03-25_05h30.54.495,CombinedMST_OA,2020.2.10,Win32,60,,,,,,,,,,,,,,,,,,,,,,,,,,,,,,,,,,,,,,,,,,,,,,,,,,,,,,,,,,,,,,,,,,,,,,,,,,,,,,,,,,,,,,,,,,,,,,,,,,,,,return,6.642, Muffled cough,0,18,18,30,1,SoundMST/Cough_D.wav,SIMILAR,,
,,,,,,,,,,,,,,5d096a5687e03b000176305c,58,2021-03-25_05h30.54.495,CombinedMST_OA,2020.2.10,Win32,60,,,,,,,,,,,,,,,,,,,,,,,,,,,,,,,,,,,,,,,,,,,,,,,,,,,,,,,,,,,,,,,,,,,,,,,,,,,,,,,,,,,,,,,,,,,,,,,,,,,,,return,13.266, Corvid bird cawing,0,19,19,39,1,SoundMST/Crow_B.wav,SIMILAR,,
,,,,,,,,,,,,,,5d096a5687e03b000176305c,58,2021-03-25_05h30.54.495,CombinedMST_OA,2020.2.10,Win32,60,,,,,,,,,,,,,,,,,,,,,,,,,,,,,,,,,,,,,,,,,,,,,,,,,,,,,,,,,,,,,,,,,,,,,,,,,,,,,,,,,,,,,,,,,,,,,,,,,,,,,return,11.994, Bugle being blown,0,20,20,63,1,SoundMST/Trumpet_B.wav,SAME,,
,,,,,,,,,,,,,,5d096a5687e03b000176305c,58,2021-03-25_05h30.54.495,CombinedMST_OA,2020.2.10,Win32,60,,,,,,,,,,,,,,,,,,,,,,,,,,,,,,,,,,,,,,,,,,,,,,,,,,,,,,,,,,,,,,,,,,,,,,,,,,,,,,,,,,,,,,,,,,,,,,,,,,,,,return,16.896, Skittles being knocked down,0,21,21,72,1,SoundMST/Bowlingpins.wav,SAME,,
,,,,,,,,,,,,,,5d096a5687e03b000176305c,58,2021-03-25_05h30.54.495,CombinedMST_OA,2020.2.10,Win32,60,,,,,,,,,,,,,,,,,,,,,,,,,,,,,,,,,,,,,,,,,,,,,,,,,,,,,,,,,,,,,,,,,,,,,,,,,,,,,,,,,,,,,,,,,,,,,,,,,,,,,return,9.131, Car engine starting,0,22,22,22,1,SoundMST/CarStart_F.wav,SIMILAR,,
,,,,,,,,,,,,,,5d096a5687e03b000176305c,58,2021-03-25_05h30.54.495,CombinedMST_OA,2020.2.10,Win32,60,,,,,,,,,,,,,,,,,,,,,,,,,,,,,,,,,,,,,,,,,,,,,,,,,,,,,,,,,,,,,,,,,,,,,,,,,,,,,,,,,,,,,,,,,,,,,,,,,,,,,return,16.993, Water being poured into a cup,0,23,23,1,1,SoundMST/Pour_C.wav,SIMILAR,,
,,,,,,,,,,,,,,5d096a5687e03b000176305c,58,2021-03-25_05h30.54.495,CombinedMST_OA,2020.2.10,Win32,60,,,,,,,,,,,,,,,,,,,,,,,,,,,,,,,,,,,,,,,,,,,,,,,,,,,,,,,,,,,,,,,,,,,,,,,,,,,,,,,,,,,,,,,,,,,,,,,,,,,,,return,11.994, Cup being knocked,0,24,24,68,1,SoundMST/Cup.wav,SAME,,
,,,,,,,,,,,,,,5d096a5687e03b000176305c,58,2021-03-25_05h30.54.495,CombinedMST_OA,2020.2.10,Win32,60,,,,,,,,,,,,,,,,,,,,,,,,,,,,,,,,,,,,,,,,,,,,,,,,,,,,,,,,,,,,,,,,,,,,,,,,,,,,,,,,,,,,,,,,,,,,,,,,,,,,,return,20.259, Old printer,0,25,25,83,1,SoundMST/Printer.wav,SAME,,
,,,,,,,,,,,,,,5d096a5687e03b000176305c,58,2021-03-25_05h30.54.495,CombinedMST_OA,2020.2.10,Win32,60,,,,,,,,,,,,,,,,,,,,,,,,,,,,,,,,,,,,,,,,,,,,,,,,,,,,,,,,,,,,,,,,,,,,,,,,,,,,,,,,,,,,,,,,,,,,,,,,,,,,,return,13.419,Old telephone dial tone,0,26,26,54,1,SoundMST/DialTone.wav,SAME,,
,,,,,,,,,,,,,,5d096a5687e03b000176305c,58,2021-03-25_05h30.54.495,CombinedMST_OA,2020.2.10,Win32,60,,,,,,,,,,,,,,,,,,,,,,,,,,,,,,,,,,,,,,,,,,,,,,,,,,,,,,,,,,,,,,,,,,,,,,,,,,,,,,,,,,,,,,,,,,,,,,,,,,,,,return,22.967, A whistle being blown,0,27,27,35,1,SoundMST/Whistle_B.wav,SIMILAR,,
,,,,,,,,,,,,,,5d096a5687e03b000176305c,58,2021-03-25_05h30.54.495,CombinedMST_OA,2020.2.10,Win32,60,,,,,,,,,,,,,,,,,,,,,,,,,,,,,,,,,,,,,,,,,,,,,,,,,,,,,,,,,,,,,,,,,,,,,,,,,,,,,,,,,,,,,,,,,,,,,,,,,,,,,return,12.831, Old camera motor drive,0,28,28,84,1,SoundMST/Camera.wav,SAME,,
,,,,,,,,,,,,,,5d096a5687e03b000176305c,58,2021-03-25_05h30.54.495,CombinedMST_OA,2020.2.10,Win32,60,,,,,,,,,,,,,,,,,,,,,,,,,,,,,,,,,,,,,,,,,,,,,,,,,,,,,,,,,,,,,,,,,,,,,,,,,,,,,,,,,,,,,,,,,,,,,,,,,,,,,return,17.112, Steam train whistle from a western,0,29,29,86,1,SoundMST/Steam.wav,SAME,,
,,,,,,,,,,,,,,5d096a5687e03b000176305c,58,2021-03-25_05h30.54.495,CombinedMST_OA,2020.2.10,Win32,60,,,,,,,,,,,,,,,,,,,,,,,,,,,,,,,,,,,,,,,,,,,,,,,,,,,,,,,,,,,,,,,,,,,,,,,,,,,,,,,,,,,,,,,,,,,,,,,,,,,,,return,11.88, Helicopter blades,0,30,30,79,1,SoundMST/Helicopter_A.wav,SAME,,
,,,,,,,,,,,,,,5d096a5687e03b000176305c,58,2021-03-25_05h30.54.495,CombinedMST_OA,2020.2.10,Win32,60,,,,,,,,,,,,,,,,,,,,,,,,,,,,,,,,,,,,,,,,,,,,,,,,,,,,,,,,,,,,,,,,,,,,,,,,,,,,,,,,,,,,,,,,,,,,,,,,,,,,,return,26.63,Water from a tap at high pressure,0,31,31,29,1,SoundMST/Faucet_A.wav,SIMILAR,,
,,,,,,,,,,,,,,5d096a5687e03b000176305c,58,2021-03-25_05h30.54.495,CombinedMST_OA,2020.2.10,Win32,60,,,,,,,,,,,,,,,,,,,,,,,,,,,,,,,,,,,,,,,,,,,,,,,,,,,,,,,,,,,,,,,,,,,,,,,,,,,,,,,,,,,,,,,,,,,,,,,,,,,,,return,10.341, Cat meowing,0,32,32,65,1,SoundMST/Cat_A.wav,SAME,,
,,,,,,,,,,,,,,5d096a5687e03b000176305c,58,2021-03-25_05h30.54.495,CombinedMST_OA,2020.2.10,Win32,60,,,,,,,,,,,,,,,,,,,,,,,,,,,,,,,,,,,,,,,,,,,,,,,,,,,,,,,,,,,,,,,,,,,,,,,,,,,,,,,,,,,,,,,,,,,,,,,,,,,,,return,8.014, Sheep baaing,0,33,33,20,1,SoundMST/Goat_C.wav,SIMILAR,,
,,,,,,,,,,,,,,5d096a5687e03b000176305c,58,2021-03-25_05h30.54.495,CombinedMST_OA,2020.2.10,Win32,60,,,,,,,,,,,,,,,,,,,,,,,,,,,,,,,,,,,,,,,,,,,,,,,,,,,,,,,,,,,,,,,,,,,,,,,,,,,,,,,,,,,,,,,,,,,,,,,,,,,,,return,11.476, Donkey braying,0,34,34,87,1,SoundMST/Donkey.wav,SAME,,
,,,,,,,,,,,,,,5d096a5687e03b000176305c,58,2021-03-25_05h30.54.495,CombinedMST_OA,2020.2.10,Win32,60,,,,,,,,,,,,,,,,,,,,,,,,,,,,,,,,,,,,,,,,,,,,,,,,,,,,,,,,,,,,,,,,,,,,,,,,,,,,,,,,,,,,,,,,,,,,,,,,,,,,,return,9.417, Shower being run,0,35,35,5,1,SoundMST/Faucet_C.wav,SIMILAR,,
,,,,,,,,,,,,,,5d096a5687e03b000176305c,58,2021-03-25_05h30.54.495,CombinedMST_OA,2020.2.10,Win32,60,,,,,,,,,,,,,,,,,,,,,,,,,,,,,,,,,,,,,,,,,,,,,,,,,,,,,,,,,,,,,,,,,,,,,,,,,,,,,,,,,,,,,,,,,,,,,,,,,,,,,return,7.378, People laughing,0,36,36,33,1,SoundMST/Laugh_A.wav,SIMILAR,,
,,,,,,,,,,,,,,5d096a5687e03b000176305c,58,2021-03-25_05h30.54.495,CombinedMST_OA,2020.2.10,Win32,60,,,,,,,,,,,,,,,,,,,,,,,,,,,,,,,,,,,,,,,,,,,,,,,,,,,,,,,,,,,,,,,,,,,,,,,,,,,,,,,,,,,,,,,,,,,,,,,,,,,,,return,6.328, Dog barking,0,37,37,17,1,SoundMST/Dog_F.wav,SIMILAR,,
,,,,,,,,,,,,,,5d096a5687e03b000176305c,58,2021-03-25_05h30.54.495,CombinedMST_OA,2020.2.10,Win32,60,,,,,,,,,,,,,,,,,,,,,,,,,,,,,,,,,,,,,,,,,,,,,,,,,,,,,,,,,,,,,,,,,,,,,,,,,,,,,,,,,,,,,,,,,,,,,,,,,,,,,return,17.881, Whistle being blown,0,38,38,11,1,SoundMST/Whistle_C.wav,SIMILAR,,
,,,,,,,,,,,,,,5d096a5687e03b000176305c,58,2021-03-25_05h30.54.495,CombinedMST_OA,2020.2.10,Win32,60,,,,,,,,,,,,,,,,,,,,,,,,,,,,,,,,,,,,,,,,,,,,,,,,,,,,,,,,,,,,,,,,,,,,,,,,,,,,,,,,,,,,,,,,,,,,,,,,,,,,,return,8.516, Water dripping,0,39,39,85,1,SoundMST/Droplet_B.wav,SAME,,
,,,,,,,,,,,,,,5d096a5687e03b000176305c,58,2021-03-25_05h30.54.495,CombinedMST_OA,2020.2.10,Win32,60,,,,,,,,,,,,,,,,,,,,,,,,,,,,,,,,,,,,,,,,,,,,,,,,,,,,,,,,,,,,,,,,,,,,,,,,,,,,,,,,,,,,,,,,,,,,,,,,,,,,,return,7.919, Person snoring,0,40,40,10,1,SoundMST/Snore_E.wav,SIMILAR,,
,,,,,,,,,,,,,,5d096a5687e03b000176305c,58,2021-03-25_05h30.54.495,CombinedMST_OA,2020.2.10,Win32,60,,,,,,,,,,,,,,,,,,,,,,,,,,,,,,,,,,,,,,,,,,,,,,,,,,,,,,,,,,,,,,,,,,,,,,,,,,,,,,,,,,,,,,,,,,,,,,,,,,,,,return,14.469, Footsteps on a wooden floor,0,41,41,40,1,SoundMST/Footsteps_C.wav,SIMILAR,,
,,,,,,,,,,,,,,5d096a5687e03b000176305c,58,2021-03-25_05h30.54.495,CombinedMST_OA,2020.2.10,Win32,60,,,,,,,,,,,,,,,,,,,,,,,,,,,,,,,,,,,,,,,,,,,,,,,,,,,,,,,,,,,,,,,,,,,,,,,,,,,,,,,,,,,,,,,,,,,,,,,,,,,,,return,11.691, Old fashioned telephone ringing,0,42,42,37,1,SoundMST/Phone_D.wav,SIMILAR,,
,,,,,,,,,,,,,,5d096a5687e03b000176305c,58,2021-03-25_05h30.54.495,CombinedMST_OA,2020.2.10,Win32,60,,,,,,,,,,,,,,,,,,,,,,,,,,,,,,,,,,,,,,,,,,,,,,,,,,,,,,,,,,,,,,,,,,,,,,,,,,,,,,,,,,,,,,,,,,,,,,,,,,,,,return,13.251, Chalk on a blackboard,0,43,43,3,1,SoundMST/Writing_C.wav,SIMILAR,,
,,,,,,,,,,,,,,5d096a5687e03b000176305c,58,2021-03-25_05h30.54.495,CombinedMST_OA,2020.2.10,Win32,60,,,,,,,,,,,,,,,,,,,,,,,,,,,,,,,,,,,,,,,,,,,,,,,,,,,,,,,,,,,,,,,,,,,,,,,,,,,,,,,,,,,,,,,,,,,,,,,,,,,,,return,8.682, Lion growling,0,44,44,19,1,SoundMST/Growl_H.wav,SIMILAR,,
,,,,,,,,,,,,,,5d096a5687e03b000176305c,58,2021-03-25_05h30.54.495,CombinedMST_OA,2020.2.10,Win32,60,,,,,,,,,,,,,,,,,,,,,,,,,,,,,,,,,,,,,,,,,,,,,,,,,,,,,,,,,,,,,,,,,,,,,,,,,,,,,,,,,,,,,,,,,,,,,,,,,,,,,return,13.231, Footsteps on floorboards,0,45,45,16,1,SoundMST/Footsteps_F.wav,SIMILAR,,
,,,,,,,,,,,,,,5d096a5687e03b000176305c,58,2021-03-25_05h30.54.495,CombinedMST_OA,2020.2.10,Win32,60,,,,,,,,,,,,,,,,,,,,,,,,,,,,,,,,,,,,,,,,,,,,,,,,,,,,,,,,,,,,,,,,,,,,,,,,,,,,,,,,,,,,,,,,,,,,,,,,,,,,,return,16.376, Sleighbells ringing,0,46,46,50,1,SoundMST/Sleighbells_B.wav,SAME,,
,,,,,,,,,,,,,,5d096a5687e03b000176305c,58,2021-03-25_05h30.54.495,CombinedMST_OA,2020.2.10,Win32,60,,,,,,,,,,,,,,,,,,,,,,,,,,,,,,,,,,,,,,,,,,,,,,,,,,,,,,,,,,,,,,,,,,,,,,,,,,,,,,,,,,,,,,,,,,,,,,,,,,,,,return,12.552, Bagpipes being played,0,47,47,69,1,SoundMST/Bagpipe.wav,SAME,,
,,,,,,,,,,,,,,5d096a5687e03b000176305c,58,2021-03-25_05h30.54.495,CombinedMST_OA,2020.2.10,Win32,60,,,,,,,,,,,,,,,,,,,,,,,,,,,,,,,,,,,,,,,,,,,,,,,,,,,,,,,,,,,,,,,,,,,,,,,,,,,,,,,,,,,,,,,,,,,,,,,,,,,,,return,10.662, Elephant trumpeting,0,48,48,24,1,SoundMST/Elephant_C.wav,SIMILAR,,
,,,,,,,,,,,,,,5d096a5687e03b000176305c,58,2021-03-25_05h30.54.495,CombinedMST_OA,2020.2.10,Win32,60,,,,,,,,,,,,,,,,,,,,,,,,,,,,,,,,,,,,,,,,,,,,,,,,,,,,,,,,,,,,,,,,,,,,,,,,,,,,,,,,,,,,,,,,,,,,,,,,,,,,,return,9.468, Car engine being started,0,49,49,46,1,SoundMST/CarStart_E.wav,SIMILAR,,
,,,,,,,,,,,,,,5d096a5687e03b000176305c,58,2021-03-25_05h30.54.495,CombinedMST_OA,2020.2.10,Win32,60,,,,,,,,,,,,,,,,,,,,,,,,,,,,,,,,,,,,,,,,,,,,,,,,,,,,,,,,,,,,,,,,,,,,,,,,,,,,,,,,,,,,,,,,,,,,,,,,,,,,,return,9.825, Frog ribbiting,0,50,50,73,1,SoundMST/Bullfrog.wav,SAME,,
,,,,,,,,,,,,,,5d096a5687e03b000176305c,58,2021-03-25_05h30.54.495,CombinedMST_OA,2020.2.10,Win32,60,,,,,,,,,,,,,,,,,,,,,,,,,,,,,,,,,,,,,,,,,,,,,,,,,,,,,,,,,,,,,,,,,,,,,,,,,,,,,,,,,,,,,,,,,,,,,,,,,,,,,return,18.032, Coins being counted,0,51,51,18,1,SoundMST/Coin_E.wav,SIMILAR,,
,,,,,,,,,,,,,,5d096a5687e03b000176305c,58,2021-03-25_05h30.54.495,CombinedMST_OA,2020.2.10,Win32,60,,,,,,,,,,,,,,,,,,,,,,,,,,,,,,,,,,,,,,,,,,,,,,,,,,,,,,,,,,,,,,,,,,,,,,,,,,,,,,,,,,,,,,,,,,,,,,,,,,,,,return,67.502, Double bass being played,0,52,52,61,1,SoundMST/Cello.wav,SAME,,
,,,,,,,,,,,,,,5d096a5687e03b000176305c,58,2021-03-25_05h30.54.495,CombinedMST_OA,2020.2.10,Win32,60,,,,,,,,,,,,,,,,,,,,,,,,,,,,,,,,,,,,,,,,,,,,,,,,,,,,,,,,,,,,,,,,,,,,,,,,,,,,,,,,,,,,,,,,,,,,,,,,,,,,,return,12.848, Crash of thunder,0,53,53,48,1,SoundMST/Thunder_A.wav,SAME,,
,,,,,,,,,,,,,,5d096a5687e03b000176305c,58,2021-03-25_05h30.54.495,CombinedMST_OA,2020.2.10,Win32,60,,,,,,,,,,,,,,,,,,,,,,,,,,,,,,,,,,,,,,,,,,,,,,,,,,,,,,,,,,,,,,,,,,,,,,,,,,,,,,,,,,,,,,,,,,,,,,,,,,,,,return,15.774, Someone sneezing,0,54,54,64,1,SoundMST/Sneeze_B.wav,SAME,,
,,,,,,,,,,,,,,5d096a5687e03b000176305c,58,2021-03-25_05h30.54.495,CombinedMST_OA,2020.2.10,Win32,60,,,,,,,,,,,,,,,,,,,,,,,,,,,,,,,,,,,,,,,,,,,,,,,,,,,,,,,,,,,,,,,,,,,,,,,,,,,,,,,,,,,,,,,,,,,,,,,,,,,,,return,7.415, Peopel clapping,0,55,55,47,1,SoundMST/Clap_B.wav,SIMILAR,,
,,,,,,,,,,,,,,5d096a5687e03b000176305c,58,2021-03-25_05h30.54.495,CombinedMST_OA,2020.2.10,Win32,60,,,,,,,,,,,,,,,,,,,,,,,,,,,,,,,,,,,,,,,,,,,,,,,,,,,,,,,,,,,,,,,,,,,,,,,,,,,,,,,,,,,,,,,,,,,,,,,,,,,,,return,13.939, Someone slurping their drink,0,56,56,66,1,SoundMST/Slurp.wav,SAME,,
,,,,,,,,,,,,,,5d096a5687e03b000176305c,58,2021-03-25_05h30.54.495,CombinedMST_OA,2020.2.10,Win32,60,,,,,,,,,,,,,,,,,,,,,,,,,,,,,,,,,,,,,,,,,,,,,,,,,,,,,,,,,,,,,,,,,,,,,,,,,,,,,,,,,,,,,,,,,,,,,,,,,,,,,return,22.9, Liquidiser being run,0,57,57,74,1,SoundMST/HairDryer_A.wav,SAME,,
,,,,,,,,,,,,,,5d096a5687e03b000176305c,58,2021-03-25_05h30.54.495,CombinedMST_OA,2020.2.10,Win32,60,,,,,,,,,,,,,,,,,,,,,,,,,,,,,,,,,,,,,,,,,,,,,,,,,,,,,,,,,,,,,,,,,,,,,,,,,,,,,,,,,,,,,,,,,,,,,,,,,,,,,return,18.891, Mobile phone vibrating,0,58,58,52,1,SoundMST/Buzz.wav,SAME,,
,,,,,,,,,,,,,,5d096a5687e03b000176305c,58,2021-03-25_05h30.54.495,CombinedMST_OA,2020.2.10,Win32,60,,,,,,,,,,,,,,,,,,,,,,,,,,,,,,,,,,,,,,,,,,,,,,,,,,,,,,,,,,,,,,,,,,,,,,,,,,,,,,,,,,,,,,,,,,,,,,,,,,,,,return,18.67, Typewriter being used,0,59,59,49,1,SoundMST/Typing.wav,SAME,,
,,,,,,,,,,,,,,5d096a5687e03b000176305c,58,2021-03-25_05h30.54.495,CombinedMST_OA,2020.2.10,Win32,60,,,,,,,,,,,,,,,,,,,,,,,,,,,,,,,,,,,,,,,,,,,,,,,,,,,,,,,,,,,,,,,,,,,,,,,,,,,,,,,,,,,,,,,,,,,,,,,,,,,,,return,18.401, Goat baaing,0,60,60,44,1,SoundMST/Goat_B.wav,SIMILAR,,
,,,,,,,,,,,,,,5d096a5687e03b000176305c,58,2021-03-25_05h30.54.495,CombinedMST_OA,2020.2.10,Win32,60,,,,,,,,,,,,,,,,,,,,,,,,,,,,,,,,,,,,,,,,,,,,,,,,,,,,,,,,,,,,,,,,,,,,,,,,,,,,,,,,,,,,,,,,,,,,,,,,,,,,,return,9.891, Toilet being flushed,0,61,61,51,1,SoundMST/Toilet_B.wav,SAME,,
,,,,,,,,,,,,,,5d096a5687e03b000176305c,58,2021-03-25_05h30.54.495,CombinedMST_OA,2020.2.10,Win32,60,,,,,,,,,,,,,,,,,,,,,,,,,,,,,,,,,,,,,,,,,,,,,,,,,,,,,,,,,,,,,,,,,,,,,,,,,,,,,,,,,,,,,,,,,,,,,,,,,,,,,return,6.591, Peopel clapping,0,62,62,23,1,SoundMST/Clap_C.wav,SIMILAR,,
,,,,,,,,,,,,,,5d096a5687e03b000176305c,58,2021-03-25_05h30.54.495,CombinedMST_OA,2020.2.10,Win32,60,,,,,,,,,,,,,,,,,,,,,,,,,,,,,,,,,,,,,,,,,,,,,,,,,,,,,,,,,,,,,,,,,,,,,,,,,,,,,,,,,,,,,,,,,,,,,,,,,,,,,return,14.672, Air bubbling under water,0,63,63,45,1,SoundMST/Bubbles_A.wav,SIMILAR,,
,,,,,,,,,,,,,,5d096a5687e03b000176305c,58,2021-03-25_05h30.54.495,CombinedMST_OA,2020.2.10,Win32,60,,,,,,,,,,,,,,,,,,,,,,,,,,,,,,,,,,,,,,,,,,,,,,,,,,,,,,,,,,,,,,,,,,,,,,,,,,,,,,,,,,,,,,,,,,,,,,,,,,,,,return,7.013, Lion growling,0,64,64,43,1,SoundMST/Growl_G.wav,SIMILAR,,
,,,,,,,,,,,,,,5d096a5687e03b000176305c,58,2021-03-25_05h30.54.495,CombinedMST_OA,2020.2.10,Win32,60,,,,,,,,,,,,,,,,,,,,,,,,,,,,,,,,,,,,,,,,,,,,,,,,,,,,,,,,,,,,,,,,,,,,,,,,,,,,,,,,,,,,,,,,,,,,,,,,,,,,,return,7.078, Dog barking,0,65,65,41,1,SoundMST/Dog_H.wav,SIMILAR,,
,,,,,,,,,,,,,,5d096a5687e03b000176305c,58,2021-03-25_05h30.54.495,CombinedMST_OA,2020.2.10,Win32,60,,,,,,,,,,,,,,,,,,,,,,,,,,,,,,,,,,,,,,,,,,,,,,,,,,,,,,,,,,,,,,,,,,,,,,,,,,,,,,,,,,,,,,,,,,,,,,,,,,,,,return,30.999, Spoons being put into a glass,0,66,66,57,1,SoundMST/IceDrop.wav,SAME,,
,,,,,,,,,,,,,,5d096a5687e03b000176305c,58,2021-03-25_05h30.54.495,CombinedMST_OA,2020.2.10,Win32,60,,,,,,,,,,,,,,,,,,,,,,,,,,,,,,,,,,,,,,,,,,,,,,,,,,,,,,,,,,,,,,,,,,,,,,,,,,,,,,,,,,,,,,,,,,,,,,,,,,,,,return,9.101, Church bell ringing,0,67,67,26,1,SoundMST/Chime_B.wav,SIMILAR,,
,,,,,,,,,,,,,,5d096a5687e03b000176305c,58,2021-03-25_05h30.54.495,CombinedMST_OA,2020.2.10,Win32,60,,,,,,,,,,,,,,,,,,,,,,,,,,,,,,,,,,,,,,,,,,,,,,,,,,,,,,,,,,,,,,,,,,,,,,,,,,,,,,,,,,,,,,,,,,,,,,,,,,,,,return,9.869, Church bell ringing,0,68,68,2,1,SoundMST/Chime_A.wav,SIMILAR,,
,,,,,,,,,,,,,,5d096a5687e03b000176305c,58,2021-03-25_05h30.54.495,CombinedMST_OA,2020.2.10,Win32,60,,,,,,,,,,,,,,,,,,,,,,,,,,,,,,,,,,,,,,,,,,,,,,,,,,,,,,,,,,,,,,,,,,,,,,,,,,,,,,,,,,,,,,,,,,,,,,,,,,,,,return,11.042, Guitar being strummed,0,69,69,59,1,SoundMST/Guitar_B.wav,SAME,,
,,,,,,,,,,,,,,5d096a5687e03b000176305c,58,2021-03-25_05h30.54.495,CombinedMST_OA,2020.2.10,Win32,60,,,,,,,,,,,,,,,,,,,,,,,,,,,,,,,,,,,,,,,,,,,,,,,,,,,,,,,,,,,,,,,,,,,,,,,,,,,,,,,,,,,,,,,,,,,,,,,,,,,,,return,9.235, Coins being counted,0,70,70,42,1,SoundMST/Coin_D.wav,SIMILAR,,
,,,,,,,,,,,,,,5d096a5687e03b000176305c,58,2021-03-25_05h30.54.495,CombinedMST_OA,2020.2.10,Win32,60,,,,,,,,,,,,,,,,,,,,,,,,,,,,,,,,,,,,,,,,,,,,,,,,,,,,,,,,,,,,,,,,,,,,,,,,,,,,,,,,,,,,,,,,,,,,,,,,,,,,,return,8.448, Wolf baying,0,71,71,80,1,SoundMST/Howl.wav,SAME,,
,,,,,,,,,,,,,,5d096a5687e03b000176305c,58,2021-03-25_05h30.54.495,CombinedMST_OA,2020.2.10,Win32,60,,,,,,,,,,,,,,,,,,,,,,,,,,,,,,,,,,,,,,,,,,,,,,,,,,,,,,,,,,,,,,,,,,,,,,,,,,,,,,,,,,,,,,,,,,,,,,,,,,,,,return,8.849, Elephant trumpeting,0,72,72,0,1,SoundMST/Elephant_A.wav,SIMILAR,,
,,,,,,,,,,,,,,5d096a5687e03b000176305c,58,2021-03-25_05h30.54.495,CombinedMST_OA,2020.2.10,Win32,60,,,,,,,,,,,,,,,,,,,,,,,,,,,,,,,,,,,,,,,,,,,,,,,,,,,,,,,,,,,,,,,,,,,,,,,,,,,,,,,,,,,,,,,,,,,,,,,,,,,,,return,9.725, Geese quacking,0,73,73,32,1,SoundMST/Duck_C.wav,SIMILAR,,
,,,,,,,,,,,,,,5d096a5687e03b000176305c,58,2021-03-25_05h30.54.495,CombinedMST_OA,2020.2.10,Win32,60,,,,,,,,,,,,,,,,,,,,,,,,,,,,,,,,,,,,,,,,,,,,,,,,,,,,,,,,,,,,,,,,,,,,,,,,,,,,,,,,,,,,,,,,,,,,,,,,,,,,,return,7.027, Person coughing,0,74,74,6,1,SoundMST/Cough_F.wav,SIMILAR,,
,,,,,,,,,,,,,,5d096a5687e03b000176305c,58,2021-03-25_05h30.54.495,CombinedMST_OA,2020.2.10,Win32,60,,,,,,,,,,,,,,,,,,,,,,,,,,,,,,,,,,,,,,,,,,,,,,,,,,,,,,,,,,,,,,,,,,,,,,,,,,,,,,,,,,,,,,,,,,,,,,,,,,,,,return,6.324, Duck quacking,0,75,75,8,1,SoundMST/Duck_D.wav,SIMILAR,,
,,,,,,,,,,,,,,5d096a5687e03b000176305c,58,2021-03-25_05h30.54.495,CombinedMST_OA,2020.2.10,Win32,60,,,,,,,,,,,,,,,,,,,,,,,,,,,,,,,,,,,,,,,,,,,,,,,,,,,,,,,,,,,,,,,,,,,,,,,,,,,,,,,,,,,,,,,,,,,,,,,,,,,,,return,8.334, Baby laughing,0,76,76,4,1,SoundMST/Baby_E.wav,SIMILAR,,
,,,,,,,,,,,,,,5d096a5687e03b000176305c,58,2021-03-25_05h30.54.495,CombinedMST_OA,2020.2.10,Win32,60,,,,,,,,,,,,,,,,,,,,,,,,,,,,,,,,,,,,,,,,,,,,,,,,,,,,,,,,,,,,,,,,,,,,,,,,,,,,,,,,,,,,,,,,,,,,,,,,,,,,,return,9.772, Baby laughing,0,77,77,28,1,SoundMST/Baby_F.wav,SIMILAR,,
,,,,,,,,,,,,,,5d096a5687e03b000176305c,58,2021-03-25_05h30.54.495,CombinedMST_OA,2020.2.10,Win32,60,,,,,,,,,,,,,,,,,,,,,,,,,,,,,,,,,,,,,,,,,,,,,,,,,,,,,,,,,,,,,,,,,,,,,,,,,,,,,,,,,,,,,,,,,,,,,,,,,,,,,return,8.585, Bird singing,0,78,78,31,1,SoundMST/Bird_E.wav,SIMILAR,,
,,,,,,,,,,,,,,5d096a5687e03b000176305c,58,2021-03-25_05h30.54.495,CombinedMST_OA,2020.2.10,Win32,60,,,,,,,,,,,,,,,,,,,,,,,,,,,,,,,,,,,,,,,,,,,,,,,,,,,,,,,,,,,,,,,,,,,,,,,,,,,,,,,,,,,,,,,,,,,,,,,,,,,,,return,6.227, Police siren,0,79,79,38,1,SoundMST/Siren_E.wav,SIMILAR,,
,,,,,,,,,,,,,,5d096a5687e03b000176305c,58,2021-03-25_05h30.54.495,CombinedMST_OA,2020.2.10,Win32,60,,,,,,,,,,,,,,,,,,,,,,,,,,,,,,,,,,,,,,,,,,,,,,,,,,,,,,,,,,,,,,,,,,,,,,,,,,,,,,,,,,,,,,,,,,,,,,,,,,,,,return,8.348, Someone snoring,0,80,80,34,1,SoundMST/Snore_D.wav,SIMILAR,,
,,,,,,,,,,,,,,5d096a5687e03b000176305c,58,2021-03-25_05h30.54.495,CombinedMST_OA,2020.2.10,Win32,60,,,,,,,,,,,,,,,,,,,,,,,,,,,,,,,,,,,,,,,,,,,,,,,,,,,,,,,,,,,,,,,,,,,,,,,,,,,,,,,,,,,,,,,,,,,,,,,,,,,,,return,14.502, Biplane diving,0,81,81,62,1,SoundMST/Airplane_B.wav,SAME,,
,,,,,,,,,,,,,,5d096a5687e03b000176305c,58,2021-03-25_05h30.54.495,CombinedMST_OA,2020.2.10,Win32,60,,,,,,,,,,,,,,,,,,,,,,,,,,,,,,,,,,,,,,,,,,,,,,,,,,,,,,,,,,,,,,,,,,,,,,,,,,,,,,,,,,,,,,,,,,,,,,,,,,,,,return,9.741, Air bubbling under water,0,82,82,21,1,SoundMST/Bubbles_B.wav,SIMILAR,,
,,,,,,,,,,,,,,5d096a5687e03b000176305c,58,2021-03-25_05h30.54.495,CombinedMST_OA,2020.2.10,Win32,60,,,,,,,,,,,,,,,,,,,,,,,,,,,,,,,,,,,,,,,,,,,,,,,,,,,,,,,,,,,,,,,,,,,,,,,,,,,,,,,,,,,,,,,,,,,,,,,,,,,,,return,9.483, Corvid bird cawing,0,83,83,15,1,SoundMST/Crow_A.wav,SIMILAR,,
,,,,,,,,,,,,,,5d096a5687e03b000176305c,58,2021-03-25_05h30.54.495,CombinedMST_OA,2020.2.10,Win32,60,,,,,,,,,,,,,,,,,,,,,,,,,,,,,,,,,,,,,,,,,,,,,,,,,,,,,,,,,,,,,,,,,,,,,,,,,,,,,,,,,,,,,,,,,,,,,,,,,,,,,return,11.123, Heartbeat thumping,0,84,84,56,1,SoundMST/Heartbeat.wav,SAME,,
,,,,,,,,,,,,,,5d096a5687e03b000176305c,58,2021-03-25_05h30.54.495,CombinedMST_OA,2020.2.10,Win32,60,,,,,,,,,,,,,,,,,,,,,,,,,,,,,,,,,,,,,,,,,,,,,,,,,,,,,,,,,,,,,,,,,,,,,,,,,,,,,,,,,,,,,,,,,,,,,,,,,,,,,return,8.047, Gnat buzzing,0,85,85,53,1,SoundMST/Mosquito_B.wav,SAME,,
,,,,,,,,,,,,,,5d096a5687e03b000176305c,58,2021-03-25_05h30.54.495,CombinedMST_OA,2020.2.10,Win32,60,,,,,,,,,,,,,,,,,,,,,,,,,,,,,,,,,,,,,,,,,,,,,,,,,,,,,,,,,,,,,,,,,,,,,,,,,,,,,,,,,,,,,,,,,,,,,,,,,,,,,return,15.857, Someone eating crisps,0,86,86,36,1,SoundMST/Chomp_A.wav,SIMILAR,,
,,,,,,,,,,,,,,5d096a5687e03b000176305c,58,2021-03-25_05h30.54.495,CombinedMST_OA,2020.2.10,Win32,60,,,,,,,,,,,,,,,,,,,,,,,,,,,,,,,,,,,,,,,,,,,,,,,,,,,,,,,,,,,,,,,,,,,,,,,,,,,,,,,,,,,,,,,,,,,,,,,,,,,,,return,9.352, Someone eating an apple,0,87,87,12,1,SoundMST/Chomp_C.wav,SIMILAR,,
,,,,,,,,,,,,,,5d096a5687e03b000176305c,58,2021-03-25_05h30.54.495,CombinedMST_OA,2020.2.10,Win32,60,,,,,,,,,,,,,,,,,,,,,,,,,,,,,,,,,,,,,,,,,,,,,,,,,,,,,,,,,,,,,,,,,,,,,,,,,,,,,,,,,,,,,,,,,,,,,,,,,,,,,,,,,,,,,,,space,44.402
