VolumeContinueKey.keys,VolumeContinueKey.rt,HeadphoneContinueKey.keys,HeadphoneContinueKey.rt,CheckResp.keys,CheckResp.corr,CheckResp.rt,trials_3.thisRepN,trials_3.thisTrialN,trials_3.thisN,trials_3.thisIndex,trials_3.ran,File,Correct,participant,Age,date,expName,psychopyVersion,OS,frameRate,Welcome0ContKey.keys,Welcome0ContKey.rt,ContinueResp.keys,ContinueResp.rt,Wel2ContinueKey.keys,Wel2ContinueKey.rt,WelcomeContinueKey2.keys,WelcomeContinueKey2.rt,Practice_resp.keys,Practice_resp.corr,Practice_resp.rt,PracticeTrials.thisRepN,PracticeTrials.thisTrialN,PracticeTrials.thisN,PracticeTrials.thisIndex,PracticeTrials.ran,SoundFile,Type,StartTast.keys,StartTast.rt,MST_resp.keys,MST_resp.corr,MST_resp.rt,trials.thisRepN,trials.thisTrialN,trials.thisN,trials.thisIndex,trials.ran,WordCorrect,Correct_type,WordType,Condition,Attn1ContKey.keys,Attn1ContKey.rt,AttnCheckResp.text,SyllblCheckContKey.keys,SyllblCheckContKey.rt,SyllblCheckResp.keys,SyllblCheckResp.corr,SyllblCheckResp.rt,trials_2.thisRepN,trials_2.thisTrialN,trials_2.thisN,trials_2.thisIndex,trials_2.ran,Target,Word1,Word2,Word3,WordTask.thisRepN,WordTask.thisTrialN,WordTask.thisN,WordTask.thisIndex,WordTask.ran,Counterbalance.thisRepN,Counterbalance.thisTrialN,Counterbalance.thisN,Counterbalance.thisIndex,Counterbalance.ran,WordOrder,SoundOrder,key_resp.keys,key_resp.rt,WelcomeSound2ContKey.keys,WelcomeSound2ContKey.rt,PracticeSoundKey.keys,PracticeSoundKey.corr,PracticeSoundKey.rt,SoundPracticeLoop.thisRepN,SoundPracticeLoop.thisTrialN,SoundPracticeLoop.thisN,SoundPracticeLoop.thisIndex,SoundPracticeLoop.ran,SoundMST_File,SoundCorrect,Correct2,SoundType,Trial,MSTSoundStrtKey.keys,MSTSoundStrtKey.rt,MSTSoundKey.keys,MSTSoundKey.corr,MSTSoundKey.rt,MSTSoundLoop.thisRepN,MSTSoundLoop.thisTrialN,MSTSoundLoop.thisN,MSTSoundLoop.thisIndex,MSTSoundLoop.ran,AttnCheck2Keys.keys,AttnCheck2Keys.rt,AttnCheck2Resp.text,SoundTask.thisRepN,SoundTask.thisTrialN,SoundTask.thisN,SoundTask.thisIndex,SoundTask.ran,key_resp_4.keys,key_resp_4.rt,GuessSoundIntro2Cont.keys,GuessSoundIntro2Cont.rt,GSSubmit.keys,GSSubmit.rt,GSResponse.text,GuessSoundLoop.thisRepN,GuessSoundLoop.thisTrialN,GuessSoundLoop.thisN,GuessSoundLoop.thisIndex,GuessSoundLoop.ran,GS_File,GS_Type,ExitKey.keys,ExitKey.rt
space,6.55658,space,22.98692,1,1,5.30518,0,0,0,1,1,Headphone/t1_2.wav,1,5e13a1381e2e589db94cd20b,58,2021-03-25_02h15.54.603,CombinedMST_OA,2020.2.10,MacIntel,60,,,,,,,,,,,,,,,,,,,,,,,,,,,,,,,,,,,,,,,,,,,,,,,,,,,,,,,,,,,,,,,,,,,,,,,,,,,,,,,,,,,,,,,,,,,,,,,,,,,,,,,,,,,,,,,,
,,,,1,1,1.952485,0,1,1,0,1,Headphone/t1_1.wav,1,5e13a1381e2e589db94cd20b,58,2021-03-25_02h15.54.603,CombinedMST_OA,2020.2.10,MacIntel,60,,,,,,,,,,,,,,,,,,,,,,,,,,,,,,,,,,,,,,,,,,,,,,,,,,,,,,,,,,,,,,,,,,,,,,,,,,,,,,,,,,,,,,,,,,,,,,,,,,,,,,,,,,,,,,,,
,,,,3,1,1.65239,0,2,2,5,1,Headphone/t3_2.wav,3,5e13a1381e2e589db94cd20b,58,2021-03-25_02h15.54.603,CombinedMST_OA,2020.2.10,MacIntel,60,,,,,,,,,,,,,,,,,,,,,,,,,,,,,,,,,,,,,,,,,,,,,,,,,,,,,,,,,,,,,,,,,,,,,,,,,,,,,,,,,,,,,,,,,,,,,,,,,,,,,,,,,,,,,,,,
,,,,2,1,0.563725,0,3,3,2,1,Headphone/t2_1.wav,2,5e13a1381e2e589db94cd20b,58,2021-03-25_02h15.54.603,CombinedMST_OA,2020.2.10,MacIntel,60,,,,,,,,,,,,,,,,,,,,,,,,,,,,,,,,,,,,,,,,,,,,,,,,,,,,,,,,,,,,,,,,,,,,,,,,,,,,,,,,,,,,,,,,,,,,,,,,,,,,,,,,,,,,,,,,
,,,,3,1,0.73024,0,4,4,4,1,Headphone/t3_1.wav,3,5e13a1381e2e589db94cd20b,58,2021-03-25_02h15.54.603,CombinedMST_OA,2020.2.10,MacIntel,60,,,,,,,,,,,,,,,,,,,,,,,,,,,,,,,,,,,,,,,,,,,,,,,,,,,,,,,,,,,,,,,,,,,,,,,,,,,,,,,,,,,,,,,,,,,,,,,,,,,,,,,,,,,,,,,,
,,,,2,1,0.63677,0,5,5,3,1,Headphone/t2_2.wav,2,5e13a1381e2e589db94cd20b,58,2021-03-25_02h15.54.603,CombinedMST_OA,2020.2.10,MacIntel,60,,,,,,,,,,,,,,,,,,,,,,,,,,,,,,,,,,,,,,,,,,,,,,,,,,,,,,,,,,,,,,,,,,,,,,,,,,,,,,,,,,,,,,,,,,,,,,,,,,,,,,,,,,,,,,,,
,,,,,,,,,,,,,2,5e13a1381e2e589db94cd20b,58,2021-03-25_02h15.54.603,CombinedMST_OA,2020.2.10,MacIntel,60,space,9.209285,space,60.83178,space,12.795305,space,9.016615,2,1,7.17973,0,0,0,0,1,Training/FO_YI_LAY.wav,NEW,,,,,,,,,,,,,,,,,,,,,,,,,,,,,,,,,,,,,,,,,,,,,,,,,,,,,,,,,,,,,,,,,,,,,,,,,,,,,,,,,,,,,,,,,,,,,,
,,,,,,,,,,,,,1,5e13a1381e2e589db94cd20b,58,2021-03-25_02h15.54.603,CombinedMST_OA,2020.2.10,MacIntel,60,,,,,,,,,1,1,8.325775,0,1,1,1,1,Training/FO_YI_LAY.wav,OLD,,,,,,,,,,,,,,,,,,,,,,,,,,,,,,,,,,,,,,,,,,,,,,,,,,,,,,,,,,,,,,,,,,,,,,,,,,,,,,,,,,,,,,,,,,,,,,
,,,,,,,,,,,,,2,5e13a1381e2e589db94cd20b,58,2021-03-25_02h15.54.603,CombinedMST_OA,2020.2.10,MacIntel,60,,,,,,,,,2,1,1.818765,0,2,2,2,1,Training/YO_BU_JAY.wav,NEW,,,,,,,,,,,,,,,,,,,,,,,,,,,,,,,,,,,,,,,,,,,,,,,,,,,,,,,,,,,,,,,,,,,,,,,,,,,,,,,,,,,,,,,,,,,,,,
,,,,,,,,,,,,,2,5e13a1381e2e589db94cd20b,58,2021-03-25_02h15.54.603,CombinedMST_OA,2020.2.10,MacIntel,60,,,,,,,,,2,1,2.336405,0,3,3,3,1,Training/JAY_YO_BU.wav,SIMILAR,,,,,,,,,,,,,,,,,,,,,,,,,,,,,,,,,,,,,,,,,,,,,,,,,,,,,,,,,,,,,,,,,,,,,,,,,,,,,,,,,,,,,,,,,,,,,,
,,,,,,,,,,,,,1,5e13a1381e2e589db94cd20b,58,2021-03-25_02h15.54.603,CombinedMST_OA,2020.2.10,MacIntel,60,,,,,,,,,1,1,1.685355,0,4,4,4,1,Training/FO_YI_LAY.wav,OLD,,,,,,,,,,,,,,,,,,,,,,,,,,,,,,,,,,,,,,,,,,,,,,,,,,,,,,,,,,,,,,,,,,,,,,,,,,,,,,,,,,,,,,,,,,,,,,
,,,,,,,,,,,,TestWords/HA_SI_JAI.wav,,5e13a1381e2e589db94cd20b,58,2021-03-25_02h15.54.603,CombinedMST_OA,2020.2.10,MacIntel,60,,,,,,,,,,,,,,,,,,,space,9.8593,2,1,2.23608,0,0,0,0,1,2,NEW,NEW,A,,,,,,,,,,,,,,,,,,,,,,,,,,,,,,,,,,,,,,,,,,,,,,,,,,,,,,,,,,,,,,,,,,,,,,,,,,,,,,,,
,,,,,,,,,,,,TestWords/KO_SU_FAI.wav,,5e13a1381e2e589db94cd20b,58,2021-03-25_02h15.54.603,CombinedMST_OA,2020.2.10,MacIntel,60,,,,,,,,,,,,,,,,,,,,,2,1,2.63676,0,1,1,1,1,2,NEW,NEW,A,,,,,,,,,,,,,,,,,,,,,,,,,,,,,,,,,,,,,,,,,,,,,,,,,,,,,,,,,,,,,,,,,,,,,,,,,,,,,,,,
,,,,,,,,,,,,TestWords/TAI_GI_SA.wav,,5e13a1381e2e589db94cd20b,58,2021-03-25_02h15.54.603,CombinedMST_OA,2020.2.10,MacIntel,60,,,,,,,,,,,,,,,,,,,,,2,1,0.934565,0,2,2,2,1,2,NEW,NEW,A,,,,,,,,,,,,,,,,,,,,,,,,,,,,,,,,,,,,,,,,,,,,,,,,,,,,,,,,,,,,,,,,,,,,,,,,,,,,,,,,
,,,,,,,,,,,,TestWords/KAI_LAY_TA.wav,,5e13a1381e2e589db94cd20b,58,2021-03-25_02h15.54.603,CombinedMST_OA,2020.2.10,MacIntel,60,,,,,,,,,,,,,,,,,,,,,2,1,0.45059,0,3,3,3,1,2,NEW,NEW,A,,,,,,,,,,,,,,,,,,,,,,,,,,,,,,,,,,,,,,,,,,,,,,,,,,,,,,,,,,,,,,,,,,,,,,,,,,,,,,,,
,,,,,,,,,,,,TestWords/RAY_PA_TI.wav,,5e13a1381e2e589db94cd20b,58,2021-03-25_02h15.54.603,CombinedMST_OA,2020.2.10,MacIntel,60,,,,,,,,,,,,,,,,,,,,,2,1,0.451125,0,4,4,4,1,2,NEW,NEW,A,,,,,,,,,,,,,,,,,,,,,,,,,,,,,,,,,,,,,,,,,,,,,,,,,,,,,,,,,,,,,,,,,,,,,,,,,,,,,,,,
,,,,,,,,,,,,TestWords/KO_SU_FAI.wav,,5e13a1381e2e589db94cd20b,58,2021-03-25_02h15.54.603,CombinedMST_OA,2020.2.10,MacIntel,60,,,,,,,,,,,,,,,,,,,,,2,0,1.352105,0,5,5,5,1,1,OLD,OLD,A,,,,,,,,,,,,,,,,,,,,,,,,,,,,,,,,,,,,,,,,,,,,,,,,,,,,,,,,,,,,,,,,,,,,,,,,,,,,,,,,
,,,,,,,,,,,,TestWords/TAI_SA_GI.wav,,5e13a1381e2e589db94cd20b,58,2021-03-25_02h15.54.603,CombinedMST_OA,2020.2.10,MacIntel,60,,,,,,,,,,,,,,,,,,,,,1,0,2.98711,0,6,6,6,1,2,NEW,SIMILAR,A,,,,,,,,,,,,,,,,,,,,,,,,,,,,,,,,,,,,,,,,,,,,,,,,,,,,,,,,,,,,,,,,,,,,,,,,,,,,,,,,
,,,,,,,,,,,,TestWords/KAI_LAY_TA.wav,,5e13a1381e2e589db94cd20b,58,2021-03-25_02h15.54.603,CombinedMST_OA,2020.2.10,MacIntel,60,,,,,,,,,,,,,,,,,,,,,2,0,1.38433,0,7,7,7,1,1,OLD,OLD,A,,,,,,,,,,,,,,,,,,,,,,,,,,,,,,,,,,,,,,,,,,,,,,,,,,,,,,,,,,,,,,,,,,,,,,,,,,,,,,,,
,,,,,,,,,,,,TestWords/NA_WAI_VU.wav,,5e13a1381e2e589db94cd20b,58,2021-03-25_02h15.54.603,CombinedMST_OA,2020.2.10,MacIntel,60,,,,,,,,,,,,,,,,,,,,,2,1,0.92424,0,8,8,8,1,2,NEW,NEW,A,,,,,,,,,,,,,,,,,,,,,,,,,,,,,,,,,,,,,,,,,,,,,,,,,,,,,,,,,,,,,,,,,,,,,,,,,,,,,,,,
,,,,,,,,,,,,TestWords/KO_SU_FAI.wav,,5e13a1381e2e589db94cd20b,58,2021-03-25_02h15.54.603,CombinedMST_OA,2020.2.10,MacIntel,60,,,,,,,,,,,,,,,,,,,,,2,0,1.01829,0,9,9,9,1,1,OLD,OLD,A,,,,,,,,,,,,,,,,,,,,,,,,,,,,,,,,,,,,,,,,,,,,,,,,,,,,,,,,,,,,,,,,,,,,,,,,,,,,,,,,
,,,,,,,,,,,,TestWords/RAY_PA_TI.wav,,5e13a1381e2e589db94cd20b,58,2021-03-25_02h15.54.603,CombinedMST_OA,2020.2.10,MacIntel,60,,,,,,,,,,,,,,,,,,,,,2,0,0.255845,0,10,10,10,1,1,OLD,OLD,A,,,,,,,,,,,,,,,,,,,,,,,,,,,,,,,,,,,,,,,,,,,,,,,,,,,,,,,,,,,,,,,,,,,,,,,,,,,,,,,,
,,,,,,,,,,,,TestWords/GI_SA_TAI.wav,,5e13a1381e2e589db94cd20b,58,2021-03-25_02h15.54.603,CombinedMST_OA,2020.2.10,MacIntel,60,,,,,,,,,,,,,,,,,,,,,2,1,0.80341,0,11,11,11,1,2,NEW,SIMILAR,A,,,,,,,,,,,,,,,,,,,,,,,,,,,,,,,,,,,,,,,,,,,,,,,,,,,,,,,,,,,,,,,,,,,,,,,,,,,,,,,,
,,,,,,,,,,,,TestWords/WAI_VU_NA.wav,,5e13a1381e2e589db94cd20b,58,2021-03-25_02h15.54.603,CombinedMST_OA,2020.2.10,MacIntel,60,,,,,,,,,,,,,,,,,,,,,2,1,0.500995,0,12,12,12,1,2,NEW,SIMILAR,A,,,,,,,,,,,,,,,,,,,,,,,,,,,,,,,,,,,,,,,,,,,,,,,,,,,,,,,,,,,,,,,,,,,,,,,,,,,,,,,,
,,,,,,,,,,,,TestWords/KAI_LAY_TA.wav,,5e13a1381e2e589db94cd20b,58,2021-03-25_02h15.54.603,CombinedMST_OA,2020.2.10,MacIntel,60,,,,,,,,,,,,,,,,,,,,,1,1,2.68696,0,13,13,13,1,1,OLD,OLD,A,,,,,,,,,,,,,,,,,,,,,,,,,,,,,,,,,,,,,,,,,,,,,,,,,,,,,,,,,,,,,,,,,,,,,,,,,,,,,,,,
,,,,,,,,,,,,TestWords/SI_VAI_CHU.wav,,5e13a1381e2e589db94cd20b,58,2021-03-25_02h15.54.603,CombinedMST_OA,2020.2.10,MacIntel,60,,,,,,,,,,,,,,,,,,,,,2,1,0.834705,0,14,14,14,1,2,NEW,NEW,A,,,,,,,,,,,,,,,,,,,,,,,,,,,,,,,,,,,,,,,,,,,,,,,,,,,,,,,,,,,,,,,,,,,,,,,,,,,,,,,,
,,,,,,,,,,,,TestWords/GI_TAI_SA.wav,,5e13a1381e2e589db94cd20b,58,2021-03-25_02h15.54.603,CombinedMST_OA,2020.2.10,MacIntel,60,,,,,,,,,,,,,,,,,,,,,1,0,0.467575,0,15,15,15,1,2,NEW,SIMILAR,A,,,,,,,,,,,,,,,,,,,,,,,,,,,,,,,,,,,,,,,,,,,,,,,,,,,,,,,,,,,,,,,,,,,,,,,,,,,,,,,,
,,,,,,,,,,,,TestWords/KO_SU_FAI.wav,,5e13a1381e2e589db94cd20b,58,2021-03-25_02h15.54.603,CombinedMST_OA,2020.2.10,MacIntel,60,,,,,,,,,,,,,,,,,,,,,1,1,4.474135,0,16,16,16,1,1,OLD,OLD,A,,,,,,,,,,,,,,,,,,,,,,,,,,,,,,,,,,,,,,,,,,,,,,,,,,,,,,,,,,,,,,,,,,,,,,,,,,,,,,,,
,,,,,,,,,,,,TestWords/DA_CHU_VAI.wav,,5e13a1381e2e589db94cd20b,58,2021-03-25_02h15.54.603,CombinedMST_OA,2020.2.10,MacIntel,60,,,,,,,,,,,,,,,,,,,,,2,1,0.27145,0,17,17,17,1,2,NEW,NEW,A,,,,,,,,,,,,,,,,,,,,,,,,,,,,,,,,,,,,,,,,,,,,,,,,,,,,,,,,,,,,,,,,,,,,,,,,,,,,,,,,
,,,,,,,,,,,,TestWords/RAY_PA_TI.wav,,5e13a1381e2e589db94cd20b,58,2021-03-25_02h15.54.603,CombinedMST_OA,2020.2.10,MacIntel,60,,,,,,,,,,,,,,,,,,,,,2,0,1.335095,0,18,18,18,1,1,OLD,OLD,A,,,,,,,,,,,,,,,,,,,,,,,,,,,,,,,,,,,,,,,,,,,,,,,,,,,,,,,,,,,,,,,,,,,,,,,,,,,,,,,,
,,,,,,,,,,,,TestWords/KAI_LAY_TA.wav,,5e13a1381e2e589db94cd20b,58,2021-03-25_02h15.54.603,CombinedMST_OA,2020.2.10,MacIntel,60,,,,,,,,,,,,,,,,,,,,,2,0,1.702455,0,19,19,19,1,1,OLD,OLD,A,,,,,,,,,,,,,,,,,,,,,,,,,,,,,,,,,,,,,,,,,,,,,,,,,,,,,,,,,,,,,,,,,,,,,,,,,,,,,,,,
,,,,,,,,,,,,TestWords/WAI_NA_VU.wav,,5e13a1381e2e589db94cd20b,58,2021-03-25_02h15.54.603,CombinedMST_OA,2020.2.10,MacIntel,60,,,,,,,,,,,,,,,,,,,,,1,0,0.93486,0,20,20,20,1,2,NEW,SIMILAR,A,,,,,,,,,,,,,,,,,,,,,,,,,,,,,,,,,,,,,,,,,,,,,,,,,,,,,,,,,,,,,,,,,,,,,,,,,,,,,,,,
,,,,,,,,,,,,TestWords/KO_SU_FAI.wav,,5e13a1381e2e589db94cd20b,58,2021-03-25_02h15.54.603,CombinedMST_OA,2020.2.10,MacIntel,60,,,,,,,,,,,,,,,,,,,,,2,0,0.42354,0,21,21,21,1,1,OLD,OLD,A,,,,,,,,,,,,,,,,,,,,,,,,,,,,,,,,,,,,,,,,,,,,,,,,,,,,,,,,,,,,,,,,,,,,,,,,,,,,,,,,
,,,,,,,,,,,,TestWords/SA_TAI_GI.wav,,5e13a1381e2e589db94cd20b,58,2021-03-25_02h15.54.603,CombinedMST_OA,2020.2.10,MacIntel,60,,,,,,,,,,,,,,,,,,,,,2,1,0.84099,0,22,22,22,1,2,NEW,SIMILAR,A,,,,,,,,,,,,,,,,,,,,,,,,,,,,,,,,,,,,,,,,,,,,,,,,,,,,,,,,,,,,,,,,,,,,,,,,,,,,,,,,
,,,,,,,,,,,,TestWords/RAY_PA_TI.wav,,5e13a1381e2e589db94cd20b,58,2021-03-25_02h15.54.603,CombinedMST_OA,2020.2.10,MacIntel,60,,,,,,,,,,,,,,,,,,,,,1,1,0.5013,0,23,23,23,1,1,OLD,OLD,A,,,,,,,,,,,,,,,,,,,,,,,,,,,,,,,,,,,,,,,,,,,,,,,,,,,,,,,,,,,,,,,,,,,,,,,,,,,,,,,,
,,,,,,,,,,,,TestWords/VU_NA_WAI.wav,,5e13a1381e2e589db94cd20b,58,2021-03-25_02h15.54.603,CombinedMST_OA,2020.2.10,MacIntel,60,,,,,,,,,,,,,,,,,,,,,2,1,3.443675,0,24,24,24,1,2,NEW,SIMILAR,A,,,,,,,,,,,,,,,,,,,,,,,,,,,,,,,,,,,,,,,,,,,,,,,,,,,,,,,,,,,,,,,,,,,,,,,,,,,,,,,,
,,,,,,,,,,,,TestWords/KAI_LAY_TA.wav,,5e13a1381e2e589db94cd20b,58,2021-03-25_02h15.54.603,CombinedMST_OA,2020.2.10,MacIntel,60,,,,,,,,,,,,,,,,,,,,,2,0,0.705955,0,25,25,25,1,1,OLD,OLD,A,,,,,,,,,,,,,,,,,,,,,,,,,,,,,,,,,,,,,,,,,,,,,,,,,,,,,,,,,,,,,,,,,,,,,,,,,,,,,,,,
,,,,,,,,,,,,TestWords/WAI_RO_JU.wav,,5e13a1381e2e589db94cd20b,58,2021-03-25_02h15.54.603,CombinedMST_OA,2020.2.10,MacIntel,60,,,,,,,,,,,,,,,,,,,,,2,1,0.35309,0,26,26,26,1,2,NEW,NEW,A,,,,,,,,,,,,,,,,,,,,,,,,,,,,,,,,,,,,,,,,,,,,,,,,,,,,,,,,,,,,,,,,,,,,,,,,,,,,,,,,
,,,,,,,,,,,,TestWords/KO_SU_FAI.wav,,5e13a1381e2e589db94cd20b,58,2021-03-25_02h15.54.603,CombinedMST_OA,2020.2.10,MacIntel,60,,,,,,,,,,,,,,,,,,,,,2,0,0.62359,0,27,27,27,1,1,OLD,OLD,A,,,,,,,,,,,,,,,,,,,,,,,,,,,,,,,,,,,,,,,,,,,,,,,,,,,,,,,,,,,,,,,,,,,,,,,,,,,,,,,,
,,,,,,,,,,,,TestWords/SA_GI_TAI.wav,,5e13a1381e2e589db94cd20b,58,2021-03-25_02h15.54.603,CombinedMST_OA,2020.2.10,MacIntel,60,,,,,,,,,,,,,,,,,,,,,2,1,0.60146,0,28,28,28,1,2,NEW,SIMILAR,A,,,,,,,,,,,,,,,,,,,,,,,,,,,,,,,,,,,,,,,,,,,,,,,,,,,,,,,,,,,,,,,,,,,,,,,,,,,,,,,,
,,,,,,,,,,,,TestWords/RAY_PA_TI.wav,,5e13a1381e2e589db94cd20b,58,2021-03-25_02h15.54.603,CombinedMST_OA,2020.2.10,MacIntel,60,,,,,,,,,,,,,,,,,,,,,1,1,0.600955,0,29,29,29,1,1,OLD,OLD,A,,,,,,,,,,,,,,,,,,,,,,,,,,,,,,,,,,,,,,,,,,,,,,,,,,,,,,,,,,,,,,,,,,,,,,,,,,,,,,,,
,,,,,,,,,,,,TestWords/GA_MU_ZI.wav,,5e13a1381e2e589db94cd20b,58,2021-03-25_02h15.54.603,CombinedMST_OA,2020.2.10,MacIntel,60,,,,,,,,,,,,,,,,,,,,,2,1,0.100565,0,30,30,30,1,2,NEW,NEW,A,,,,,,,,,,,,,,,,,,,,,,,,,,,,,,,,,,,,,,,,,,,,,,,,,,,,,,,,,,,,,,,,,,,,,,,,,,,,,,,,
,,,,,,,,,,,,TestWords/KAI_LAY_TA.wav,,5e13a1381e2e589db94cd20b,58,2021-03-25_02h15.54.603,CombinedMST_OA,2020.2.10,MacIntel,60,,,,,,,,,,,,,,,,,,,,,1,1,0.46773,0,31,31,31,1,1,OLD,OLD,A,,,,,,,,,,,,,,,,,,,,,,,,,,,,,,,,,,,,,,,,,,,,,,,,,,,,,,,,,,,,,,,,,,,,,,,,,,,,,,,,
,,,,,,,,,,,,TestWords/VU_WAI_NA.wav,,5e13a1381e2e589db94cd20b,58,2021-03-25_02h15.54.603,CombinedMST_OA,2020.2.10,MacIntel,60,,,,,,,,,,,,,,,,,,,,,2,1,1.75238,0,32,32,32,1,2,NEW,SIMILAR,A,,,,,,,,,,,,,,,,,,,,,,,,,,,,,,,,,,,,,,,,,,,,,,,,,,,,,,,,,,,,,,,,,,,,,,,,,,,,,,,,
,,,,,,,,,,,,TestWords/RAY_PA_TI.wav,,5e13a1381e2e589db94cd20b,58,2021-03-25_02h15.54.603,CombinedMST_OA,2020.2.10,MacIntel,60,,,,,,,,,,,,,,,,,,,,,1,1,0.55127,0,33,33,33,1,1,OLD,OLD,A,,,,,,,,,,,,,,,,,,,,,,,,,,,,,,,,,,,,,,,,,,,,,,,,,,,,,,,,,,,,,,,,,,,,,,,,,,,,,,,,
,,,,,,,,,,,,TestWords/LI_KAY_BA.wav,,5e13a1381e2e589db94cd20b,58,2021-03-25_02h15.54.603,CombinedMST_OA,2020.2.10,MacIntel,60,,,,,,,,,,,,,,,,,,,,,2,1,2.15962,0,34,34,34,1,2,NEW,NEW,A,,,,,,,,,,,,,,,,,,,,,,,,,,,,,,,,,,,,,,,,,,,,,,,,,,,,,,,,,,,,,,,,,,,,,,,,,,,,,,,,
,,,,,,,,,,,,TestWords/HI_NAY_VA.wav,,5e13a1381e2e589db94cd20b,58,2021-03-25_02h15.54.603,CombinedMST_OA,2020.2.10,MacIntel,60,,,,,,,,,,,,,,,,,,,,,2,1,0.65109,0,35,35,35,1,2,NEW,NEW,A,,,,,,,,,,,,,,,,,,,,,,,,,,,,,,,,,,,,,,,,,,,,,,,,,,,,,,,,,,,,,,,,,,,,,,,,,,,,,,,,
,,,,,,,,,,,,TestWords/KO_SU_FAI.wav,,5e13a1381e2e589db94cd20b,58,2021-03-25_02h15.54.603,CombinedMST_OA,2020.2.10,MacIntel,60,,,,,,,,,,,,,,,,,,,,,1,1,2.97057,0,36,36,36,1,1,OLD,OLD,A,,,,,,,,,,,,,,,,,,,,,,,,,,,,,,,,,,,,,,,,,,,,,,,,,,,,,,,,,,,,,,,,,,,,,,,,,,,,,,,,
,,,,,,,,,,,,TestWords/NA_VU_WAI.wav,,5e13a1381e2e589db94cd20b,58,2021-03-25_02h15.54.603,CombinedMST_OA,2020.2.10,MacIntel,60,,,,,,,,,,,,,,,,,,,,,1,0,0.889845,0,37,37,37,1,2,NEW,SIMILAR,A,,,,,,,,,,,,,,,,,,,,,,,,,,,,,,,,,,,,,,,,,,,,,,,,,,,,,,,,,,,,,,,,,,,,,,,,,,,,,,,,
,,,,,,,,,,,,TestWords/GA_MU_ZI.wav,,5e13a1381e2e589db94cd20b,58,2021-03-25_02h15.54.603,CombinedMST_OA,2020.2.10,MacIntel,60,,,,,,,,,,,,,,,,,,,,,2,0,0.207035,0,38,38,38,1,1,OLD,OLD,A,,,,,,,,,,,,,,,,,,,,,,,,,,,,,,,,,,,,,,,,,,,,,,,,,,,,,,,,,,,,,,,,,,,,,,,,,,,,,,,,
,,,,,,,,,,,,TestWords/KAI_LAY_TA.wav,,5e13a1381e2e589db94cd20b,58,2021-03-25_02h15.54.603,CombinedMST_OA,2020.2.10,MacIntel,60,,,,,,,,,,,,,,,,,,,,,1,1,0.61787,0,39,39,39,1,1,OLD,OLD,A,,,,,,,,,,,,,,,,,,,,,,,,,,,,,,,,,,,,,,,,,,,,,,,,,,,,,,,,,,,,,,,,,,,,,,,,,,,,,,,,
,,,,,,,,,,,,TestWords/DAI_RU_CHI.wav,,5e13a1381e2e589db94cd20b,58,2021-03-25_02h15.54.603,CombinedMST_OA,2020.2.10,MacIntel,60,,,,,,,,,,,,,,,,,,,,,1,0,5.289895,0,40,40,40,1,2,NEW,NEW,A,,,,,,,,,,,,,,,,,,,,,,,,,,,,,,,,,,,,,,,,,,,,,,,,,,,,,,,,,,,,,,,,,,,,,,,,,,,,,,,,
,,,,,,,,,,,,TestWords/NU_CHAY_SO.wav,,5e13a1381e2e589db94cd20b,58,2021-03-25_02h15.54.603,CombinedMST_OA,2020.2.10,MacIntel,60,,,,,,,,,,,,,,,,,,,,,2,1,1.51892,0,41,41,41,1,2,NEW,NEW,A,,,,,,,,,,,,,,,,,,,,,,,,,,,,,,,,,,,,,,,,,,,,,,,,,,,,,,,,,,,,,,,,,,,,,,,,,,,,,,,,
,,,,,,,,,,,,TestWords/RAY_PA_TI.wav,,5e13a1381e2e589db94cd20b,58,2021-03-25_02h15.54.603,CombinedMST_OA,2020.2.10,MacIntel,60,,,,,,,,,,,,,,,,,,,,,1,1,0.28414,0,42,42,42,1,1,OLD,OLD,A,,,,,,,,,,,,,,,,,,,,,,,,,,,,,,,,,,,,,,,,,,,,,,,,,,,,,,,,,,,,,,,,,,,,,,,,,,,,,,,,
,,,,,,,,,,,,TestWords/BA_KAY_LI.wav,,5e13a1381e2e589db94cd20b,58,2021-03-25_02h15.54.603,CombinedMST_OA,2020.2.10,MacIntel,60,,,,,,,,,,,,,,,,,,,,,2,1,2.586815,0,43,43,43,1,2,NEW,SIMILAR,A,,,,,,,,,,,,,,,,,,,,,,,,,,,,,,,,,,,,,,,,,,,,,,,,,,,,,,,,,,,,,,,,,,,,,,,,,,,,,,,,
,,,,,,,,,,,,TestWords/KO_SU_FAI.wav,,5e13a1381e2e589db94cd20b,58,2021-03-25_02h15.54.603,CombinedMST_OA,2020.2.10,MacIntel,60,,,,,,,,,,,,,,,,,,,,,2,0,0.66782,0,44,44,44,1,1,OLD,OLD,A,,,,,,,,,,,,,,,,,,,,,,,,,,,,,,,,,,,,,,,,,,,,,,,,,,,,,,,,,,,,,,,,,,,,,,,,,,,,,,,,
,,,,,,,,,,,,TestWords/GA_MU_ZI.wav,,5e13a1381e2e589db94cd20b,58,2021-03-25_02h15.54.603,CombinedMST_OA,2020.2.10,MacIntel,60,,,,,,,,,,,,,,,,,,,,,2,0,0.569195,0,45,45,45,1,1,OLD,OLD,A,,,,,,,,,,,,,,,,,,,,,,,,,,,,,,,,,,,,,,,,,,,,,,,,,,,,,,,,,,,,,,,,,,,,,,,,,,,,,,,,
,,,,,,,,,,,,TestWords/CHU_LA_PAY.wav,,5e13a1381e2e589db94cd20b,58,2021-03-25_02h15.54.603,CombinedMST_OA,2020.2.10,MacIntel,60,,,,,,,,,,,,,,,,,,,,,2,1,0.81803,0,46,46,46,1,2,NEW,NEW,A,,,,,,,,,,,,,,,,,,,,,,,,,,,,,,,,,,,,,,,,,,,,,,,,,,,,,,,,,,,,,,,,,,,,,,,,,,,,,,,,
,,,,,,,,,,,,TestWords/KAI_LAY_TA.wav,,5e13a1381e2e589db94cd20b,58,2021-03-25_02h15.54.603,CombinedMST_OA,2020.2.10,MacIntel,60,,,,,,,,,,,,,,,,,,,,,2,0,1.807135,0,47,47,47,1,1,OLD,OLD,A,,,,,,,,,,,,,,,,,,,,,,,,,,,,,,,,,,,,,,,,,,,,,,,,,,,,,,,,,,,,,,,,,,,,,,,,,,,,,,,,
,,,,,,,,,,,,TestWords/DAI_RU_CHI.wav,,5e13a1381e2e589db94cd20b,58,2021-03-25_02h15.54.603,CombinedMST_OA,2020.2.10,MacIntel,60,,,,,,,,,,,,,,,,,,,,,2,0,0.617925,0,48,48,48,1,1,OLD,OLD,A,,,,,,,,,,,,,,,,,,,,,,,,,,,,,,,,,,,,,,,,,,,,,,,,,,,,,,,,,,,,,,,,,,,,,,,,,,,,,,,,
,,,,,,,,,,,,TestWords/KO_SU_FAI.wav,,5e13a1381e2e589db94cd20b,58,2021-03-25_02h15.54.603,CombinedMST_OA,2020.2.10,MacIntel,60,,,,,,,,,,,,,,,,,,,,,1,1,0.603955,0,49,49,49,1,1,OLD,OLD,A,,,,,,,,,,,,,,,,,,,,,,,,,,,,,,,,,,,,,,,,,,,,,,,,,,,,,,,,,,,,,,,,,,,,,,,,,,,,,,,,
,,,,,,,,,,,,TestWords/KAY_LI_BA.wav,,5e13a1381e2e589db94cd20b,58,2021-03-25_02h15.54.603,CombinedMST_OA,2020.2.10,MacIntel,60,,,,,,,,,,,,,,,,,,,,,2,1,0.48428,0,50,50,50,1,2,NEW,SIMILAR,A,,,,,,,,,,,,,,,,,,,,,,,,,,,,,,,,,,,,,,,,,,,,,,,,,,,,,,,,,,,,,,,,,,,,,,,,,,,,,,,,
,,,,,,,,,,,,TestWords/RAY_PA_TI.wav,,5e13a1381e2e589db94cd20b,58,2021-03-25_02h15.54.603,CombinedMST_OA,2020.2.10,MacIntel,60,,,,,,,,,,,,,,,,,,,,,1,1,0.550745,0,51,51,51,1,1,OLD,OLD,A,,,,,,,,,,,,,,,,,,,,,,,,,,,,,,,,,,,,,,,,,,,,,,,,,,,,,,,,,,,,,,,,,,,,,,,,,,,,,,,,
,,,,,,,,,,,,TestWords/KAI_LAY_TA.wav,,5e13a1381e2e589db94cd20b,58,2021-03-25_02h15.54.603,CombinedMST_OA,2020.2.10,MacIntel,60,,,,,,,,,,,,,,,,,,,,,1,1,0.384125,0,52,52,52,1,1,OLD,OLD,A,,,,,,,,,,,,,,,,,,,,,,,,,,,,,,,,,,,,,,,,,,,,,,,,,,,,,,,,,,,,,,,,,,,,,,,,,,,,,,,,
,,,,,,,,,,,,TestWords/HO_NAY_VA.wav,,5e13a1381e2e589db94cd20b,58,2021-03-25_02h15.54.603,CombinedMST_OA,2020.2.10,MacIntel,60,,,,,,,,,,,,,,,,,,,,,2,1,0.350735,0,53,53,53,1,2,NEW,NEW,A,,,,,,,,,,,,,,,,,,,,,,,,,,,,,,,,,,,,,,,,,,,,,,,,,,,,,,,,,,,,,,,,,,,,,,,,,,,,,,,,
,,,,,,,,,,,,TestWords/GA_MU_ZI.wav,,5e13a1381e2e589db94cd20b,58,2021-03-25_02h15.54.603,CombinedMST_OA,2020.2.10,MacIntel,60,,,,,,,,,,,,,,,,,,,,,2,0,0.818315,0,54,54,54,1,1,OLD,OLD,A,,,,,,,,,,,,,,,,,,,,,,,,,,,,,,,,,,,,,,,,,,,,,,,,,,,,,,,,,,,,,,,,,,,,,,,,,,,,,,,,
,,,,,,,,,,,,TestWords/DAI_RU_CHI.wav,,5e13a1381e2e589db94cd20b,58,2021-03-25_02h15.54.603,CombinedMST_OA,2020.2.10,MacIntel,60,,,,,,,,,,,,,,,,,,,,,1,1,0.840905,0,55,55,55,1,1,OLD,OLD,A,,,,,,,,,,,,,,,,,,,,,,,,,,,,,,,,,,,,,,,,,,,,,,,,,,,,,,,,,,,,,,,,,,,,,,,,,,,,,,,,
,,,,,,,,,,,,TestWords/MO_PU_DAY.wav,,5e13a1381e2e589db94cd20b,58,2021-03-25_02h15.54.603,CombinedMST_OA,2020.2.10,MacIntel,60,,,,,,,,,,,,,,,,,,,,,2,1,0.58444,0,56,56,56,1,2,NEW,NEW,A,,,,,,,,,,,,,,,,,,,,,,,,,,,,,,,,,,,,,,,,,,,,,,,,,,,,,,,,,,,,,,,,,,,,,,,,,,,,,,,,
,,,,,,,,,,,,TestWords/KO_SU_FAI.wav,,5e13a1381e2e589db94cd20b,58,2021-03-25_02h15.54.603,CombinedMST_OA,2020.2.10,MacIntel,60,,,,,,,,,,,,,,,,,,,,,2,0,1.885845,0,57,57,57,1,1,OLD,OLD,A,,,,,,,,,,,,,,,,,,,,,,,,,,,,,,,,,,,,,,,,,,,,,,,,,,,,,,,,,,,,,,,,,,,,,,,,,,,,,,,,
,,,,,,,,,,,,TestWords/KAY_BA_LI.wav,,5e13a1381e2e589db94cd20b,58,2021-03-25_02h15.54.603,CombinedMST_OA,2020.2.10,MacIntel,60,,,,,,,,,,,,,,,,,,,,,2,1,2.15286,0,58,58,58,1,2,NEW,SIMILAR,A,,,,,,,,,,,,,,,,,,,,,,,,,,,,,,,,,,,,,,,,,,,,,,,,,,,,,,,,,,,,,,,,,,,,,,,,,,,,,,,,
,,,,,,,,,,,,TestWords/RAY_PA_TI.wav,,5e13a1381e2e589db94cd20b,58,2021-03-25_02h15.54.603,CombinedMST_OA,2020.2.10,MacIntel,60,,,,,,,,,,,,,,,,,,,,,1,1,0.438675,0,59,59,59,1,1,OLD,OLD,A,,,,,,,,,,,,,,,,,,,,,,,,,,,,,,,,,,,,,,,,,,,,,,,,,,,,,,,,,,,,,,,,,,,,,,,,,,,,,,,,
,,,,,,,,,,,,TestWords/KAI_LAY_TA.wav,,5e13a1381e2e589db94cd20b,58,2021-03-25_02h15.54.603,CombinedMST_OA,2020.2.10,MacIntel,60,,,,,,,,,,,,,,,,,,,,,2,0,1.034845,0,60,60,60,1,1,OLD,OLD,A,,,,,,,,,,,,,,,,,,,,,,,,,,,,,,,,,,,,,,,,,,,,,,,,,,,,,,,,,,,,,,,,,,,,,,,,,,,,,,,,
,,,,,,,,,,,,TestWords/GA_MU_ZI.wav,,5e13a1381e2e589db94cd20b,58,2021-03-25_02h15.54.603,CombinedMST_OA,2020.2.10,MacIntel,60,,,,,,,,,,,,,,,,,,,,,2,0,0.534275,0,61,61,61,1,1,OLD,OLD,A,,,,,,,,,,,,,,,,,,,,,,,,,,,,,,,,,,,,,,,,,,,,,,,,,,,,,,,,,,,,,,,,,,,,,,,,,,,,,,,,
,,,,,,,,,,,,TestWords/DAY_PU_MO.wav,,5e13a1381e2e589db94cd20b,58,2021-03-25_02h15.54.603,CombinedMST_OA,2020.2.10,MacIntel,60,,,,,,,,,,,,,,,,,,,,,2,1,0.80657,0,62,62,62,1,2,NEW,SIMILAR,A,,,,,,,,,,,,,,,,,,,,,,,,,,,,,,,,,,,,,,,,,,,,,,,,,,,,,,,,,,,,,,,,,,,,,,,,,,,,,,,,
,,,,,,,,,,,,TestWords/DAI_RU_CHI.wav,,5e13a1381e2e589db94cd20b,58,2021-03-25_02h15.54.603,CombinedMST_OA,2020.2.10,MacIntel,60,,,,,,,,,,,,,,,,,,,,,2,0,3.837945,0,63,63,63,1,1,OLD,OLD,A,,,,,,,,,,,,,,,,,,,,,,,,,,,,,,,,,,,,,,,,,,,,,,,,,,,,,,,,,,,,,,,,,,,,,,,,,,,,,,,,
,,,,,,,,,,,,TestWords/LI_BA_KAY.wav,,5e13a1381e2e589db94cd20b,58,2021-03-25_02h15.54.603,CombinedMST_OA,2020.2.10,MacIntel,60,,,,,,,,,,,,,,,,,,,,,2,1,0.52304,0,64,64,64,1,2,NEW,SIMILAR,A,,,,,,,,,,,,,,,,,,,,,,,,,,,,,,,,,,,,,,,,,,,,,,,,,,,,,,,,,,,,,,,,,,,,,,,,,,,,,,,,
,,,,,,,,,,,,TestWords/KAI_LAY_TA.wav,,5e13a1381e2e589db94cd20b,58,2021-03-25_02h15.54.603,CombinedMST_OA,2020.2.10,MacIntel,60,,,,,,,,,,,,,,,,,,,,,1,1,0.43426,0,65,65,65,1,1,OLD,OLD,A,,,,,,,,,,,,,,,,,,,,,,,,,,,,,,,,,,,,,,,,,,,,,,,,,,,,,,,,,,,,,,,,,,,,,,,,,,,,,,,,
,,,,,,,,,,,,TestWords/KO_SU_FAI.wav,,5e13a1381e2e589db94cd20b,58,2021-03-25_02h15.54.603,CombinedMST_OA,2020.2.10,MacIntel,60,,,,,,,,,,,,,,,,,,,,,1,1,0.80134,0,66,66,66,1,1,OLD,OLD,A,,,,,,,,,,,,,,,,,,,,,,,,,,,,,,,,,,,,,,,,,,,,,,,,,,,,,,,,,,,,,,,,,,,,,,,,,,,,,,,,
,,,,,,,,,,,,TestWords/DAY_MO_PU.wav,,5e13a1381e2e589db94cd20b,58,2021-03-25_02h15.54.603,CombinedMST_OA,2020.2.10,MacIntel,60,,,,,,,,,,,,,,,,,,,,,2,1,0.317535,0,67,67,67,1,2,NEW,SIMILAR,A,,,,,,,,,,,,,,,,,,,,,,,,,,,,,,,,,,,,,,,,,,,,,,,,,,,,,,,,,,,,,,,,,,,,,,,,,,,,,,,,
,,,,,,,,,,,,TestWords/RAY_PA_TI.wav,,5e13a1381e2e589db94cd20b,58,2021-03-25_02h15.54.603,CombinedMST_OA,2020.2.10,MacIntel,60,,,,,,,,,,,,,,,,,,,,,1,1,0.688625,0,68,68,68,1,1,OLD,OLD,A,,,,,,,,,,,,,,,,,,,,,,,,,,,,,,,,,,,,,,,,,,,,,,,,,,,,,,,,,,,,,,,,,,,,,,,,,,,,,,,,
,,,,,,,,,,,,TestWords/GA_MU_ZI.wav,,5e13a1381e2e589db94cd20b,58,2021-03-25_02h15.54.603,CombinedMST_OA,2020.2.10,MacIntel,60,,,,,,,,,,,,,,,,,,,,,2,0,0.20057,0,69,69,69,1,1,OLD,OLD,A,,,,,,,,,,,,,,,,,,,,,,,,,,,,,,,,,,,,,,,,,,,,,,,,,,,,,,,,,,,,,,,,,,,,,,,,,,,,,,,,
,,,,,,,,,,,,TestWords/BA_LI_KAY.wav,,5e13a1381e2e589db94cd20b,58,2021-03-25_02h15.54.603,CombinedMST_OA,2020.2.10,MacIntel,60,,,,,,,,,,,,,,,,,,,,,2,1,0.73676,0,70,70,70,1,2,NEW,SIMILAR,A,,,,,,,,,,,,,,,,,,,,,,,,,,,,,,,,,,,,,,,,,,,,,,,,,,,,,,,,,,,,,,,,,,,,,,,,,,,,,,,,
,,,,,,,,,,,,TestWords/DAI_RU_CHI.wav,,5e13a1381e2e589db94cd20b,58,2021-03-25_02h15.54.603,CombinedMST_OA,2020.2.10,MacIntel,60,,,,,,,,,,,,,,,,,,,,,2,0,0.519025,0,71,71,71,1,1,OLD,OLD,A,,,,,,,,,,,,,,,,,,,,,,,,,,,,,,,,,,,,,,,,,,,,,,,,,,,,,,,,,,,,,,,,,,,,,,,,,,,,,,,,
,,,,,,,,,,,,TestWords/LU_HAI_BO.wav,,5e13a1381e2e589db94cd20b,58,2021-03-25_02h15.54.603,CombinedMST_OA,2020.2.10,MacIntel,60,,,,,,,,,,,,,,,,,,,,,2,1,0.308055,0,72,72,72,1,2,NEW,NEW,A,,,,,,,,,,,,,,,,,,,,,,,,,,,,,,,,,,,,,,,,,,,,,,,,,,,,,,,,,,,,,,,,,,,,,,,,,,,,,,,,
,,,,,,,,,,,,TestWords/RAY_PA_TI.wav,,5e13a1381e2e589db94cd20b,58,2021-03-25_02h15.54.603,CombinedMST_OA,2020.2.10,MacIntel,60,,,,,,,,,,,,,,,,,,,,,1,1,0.15066,0,73,73,73,1,1,OLD,OLD,A,,,,,,,,,,,,,,,,,,,,,,,,,,,,,,,,,,,,,,,,,,,,,,,,,,,,,,,,,,,,,,,,,,,,,,,,,,,,,,,,
,,,,,,,,,,,,TestWords/GA_MU_ZI.wav,,5e13a1381e2e589db94cd20b,58,2021-03-25_02h15.54.603,CombinedMST_OA,2020.2.10,MacIntel,60,,,,,,,,,,,,,,,,,,,,,2,0,0.306745,0,74,74,74,1,1,OLD,OLD,A,,,,,,,,,,,,,,,,,,,,,,,,,,,,,,,,,,,,,,,,,,,,,,,,,,,,,,,,,,,,,,,,,,,,,,,,,,,,,,,,
,,,,,,,,,,,,TestWords/MO_DAY_PU.wav,,5e13a1381e2e589db94cd20b,58,2021-03-25_02h15.54.603,CombinedMST_OA,2020.2.10,MacIntel,60,,,,,,,,,,,,,,,,,,,,,2,1,0.26799,0,75,75,75,1,2,NEW,SIMILAR,A,,,,,,,,,,,,,,,,,,,,,,,,,,,,,,,,,,,,,,,,,,,,,,,,,,,,,,,,,,,,,,,,,,,,,,,,,,,,,,,,
,,,,,,,,,,,,TestWords/DAI_RU_CHI.wav,,5e13a1381e2e589db94cd20b,58,2021-03-25_02h15.54.603,CombinedMST_OA,2020.2.10,MacIntel,60,,,,,,,,,,,,,,,,,,,,,1,1,2.67083,0,76,76,76,1,1,OLD,OLD,A,,,,,,,,,,,,,,,,,,,,,,,,,,,,,,,,,,,,,,,,,,,,,,,,,,,,,,,,,,,,,,,,,,,,,,,,,,,,,,,,
,,,,,,,,,,,,TestWords/ZO_FU_RAI.wav,,5e13a1381e2e589db94cd20b,58,2021-03-25_02h15.54.603,CombinedMST_OA,2020.2.10,MacIntel,60,,,,,,,,,,,,,,,,,,,,,2,1,0.11989,0,77,77,77,1,2,NEW,NEW,A,,,,,,,,,,,,,,,,,,,,,,,,,,,,,,,,,,,,,,,,,,,,,,,,,,,,,,,,,,,,,,,,,,,,,,,,,,,,,,,,
,,,,,,,,,,,,TestWords/NO_WA_BAY.wav,,5e13a1381e2e589db94cd20b,58,2021-03-25_02h15.54.603,CombinedMST_OA,2020.2.10,MacIntel,60,,,,,,,,,,,,,,,,,,,,,2,1,1.618785,0,78,78,78,1,2,NEW,NEW,A,,,,,,,,,,,,,,,,,,,,,,,,,,,,,,,,,,,,,,,,,,,,,,,,,,,,,,,,,,,,,,,,,,,,,,,,,,,,,,,,
,,,,,,,,,,,,TestWords/GA_MU_ZI.wav,,5e13a1381e2e589db94cd20b,58,2021-03-25_02h15.54.603,CombinedMST_OA,2020.2.10,MacIntel,60,,,,,,,,,,,,,,,,,,,,,2,0,0.737655,0,79,79,79,1,1,OLD,OLD,A,,,,,,,,,,,,,,,,,,,,,,,,,,,,,,,,,,,,,,,,,,,,,,,,,,,,,,,,,,,,,,,,,,,,,,,,,,,,,,,,
,,,,,,,,,,,,TestWords/DAI_RU_CHI.wav,,5e13a1381e2e589db94cd20b,58,2021-03-25_02h15.54.603,CombinedMST_OA,2020.2.10,MacIntel,60,,,,,,,,,,,,,,,,,,,,,1,1,0.99677,0,80,80,80,1,1,OLD,OLD,A,,,,,,,,,,,,,,,,,,,,,,,,,,,,,,,,,,,,,,,,,,,,,,,,,,,,,,,,,,,,,,,,,,,,,,,,,,,,,,,,
,,,,,,,,,,,,TestWords/PU_DAY_MO.wav,,5e13a1381e2e589db94cd20b,58,2021-03-25_02h15.54.603,CombinedMST_OA,2020.2.10,MacIntel,60,,,,,,,,,,,,,,,,,,,,,2,1,0.17812,0,81,81,81,1,2,NEW,SIMILAR,A,,,,,,,,,,,,,,,,,,,,,,,,,,,,,,,,,,,,,,,,,,,,,,,,,,,,,,,,,,,,,,,,,,,,,,,,,,,,,,,,
,,,,,,,,,,,,TestWords/RAI_ZO_FU.wav,,5e13a1381e2e589db94cd20b,58,2021-03-25_02h15.54.603,CombinedMST_OA,2020.2.10,MacIntel,60,,,,,,,,,,,,,,,,,,,,,2,1,0.36267,0,82,82,82,1,2,NEW,SIMILAR,A,,,,,,,,,,,,,,,,,,,,,,,,,,,,,,,,,,,,,,,,,,,,,,,,,,,,,,,,,,,,,,,,,,,,,,,,,,,,,,,,
,,,,,,,,,,,,TestWords/GA_MU_ZI.wav,,5e13a1381e2e589db94cd20b,58,2021-03-25_02h15.54.603,CombinedMST_OA,2020.2.10,MacIntel,60,,,,,,,,,,,,,,,,,,,,,2,0,2.107645,0,83,83,83,1,1,OLD,OLD,A,,,,,,,,,,,,,,,,,,,,,,,,,,,,,,,,,,,,,,,,,,,,,,,,,,,,,,,,,,,,,,,,,,,,,,,,,,,,,,,,
,,,,,,,,,,,,TestWords/PAI_LU_WA.wav,,5e13a1381e2e589db94cd20b,58,2021-03-25_02h15.54.603,CombinedMST_OA,2020.2.10,MacIntel,60,,,,,,,,,,,,,,,,,,,,,2,1,0.644705,0,84,84,84,1,2,NEW,NEW,A,,,,,,,,,,,,,,,,,,,,,,,,,,,,,,,,,,,,,,,,,,,,,,,,,,,,,,,,,,,,,,,,,,,,,,,,,,,,,,,,
,,,,,,,,,,,,TestWords/PU_MO_DAY.wav,,5e13a1381e2e589db94cd20b,58,2021-03-25_02h15.54.603,CombinedMST_OA,2020.2.10,MacIntel,60,,,,,,,,,,,,,,,,,,,,,2,1,0.41735,0,85,85,85,1,2,NEW,SIMILAR,A,,,,,,,,,,,,,,,,,,,,,,,,,,,,,,,,,,,,,,,,,,,,,,,,,,,,,,,,,,,,,,,,,,,,,,,,,,,,,,,,
,,,,,,,,,,,,TestWords/DAI_RU_CHI.wav,,5e13a1381e2e589db94cd20b,58,2021-03-25_02h15.54.603,CombinedMST_OA,2020.2.10,MacIntel,60,,,,,,,,,,,,,,,,,,,,,1,1,0.305425,0,86,86,86,1,1,OLD,OLD,A,,,,,,,,,,,,,,,,,,,,,,,,,,,,,,,,,,,,,,,,,,,,,,,,,,,,,,,,,,,,,,,,,,,,,,,,,,,,,,,,
,,,,,,,,,,,,TestWords/ZO_RAI_FU.wav,,5e13a1381e2e589db94cd20b,58,2021-03-25_02h15.54.603,CombinedMST_OA,2020.2.10,MacIntel,60,,,,,,,,,,,,,,,,,,,,,2,1,0.500935,0,87,87,87,1,2,NEW,SIMILAR,A,,,,,,,,,,,,,,,,,,,,,,,,,,,,,,,,,,,,,,,,,,,,,,,,,,,,,,,,,,,,,,,,,,,,,,,,,,,,,,,,
,,,,,,,,,,,,TestWords/FI_GU_CHA.wav,,5e13a1381e2e589db94cd20b,58,2021-03-25_02h15.54.603,CombinedMST_OA,2020.2.10,MacIntel,60,,,,,,,,,,,,,,,,,,,,,2,1,0.3842,0,88,88,88,1,2,NEW,NEW,A,,,,,,,,,,,,,,,,,,,,,,,,,,,,,,,,,,,,,,,,,,,,,,,,,,,,,,,,,,,,,,,,,,,,,,,,,,,,,,,,
,,,,,,,,,,,,TestWords/GA_MU_ZI.wav,,5e13a1381e2e589db94cd20b,58,2021-03-25_02h15.54.603,CombinedMST_OA,2020.2.10,MacIntel,60,,,,,,,,,,,,,,,,,,,,,2,0,0.936355,0,89,89,89,1,1,OLD,OLD,A,,,,,,,,,,,,,,,,,,,,,,,,,,,,,,,,,,,,,,,,,,,,,,,,,,,,,,,,,,,,,,,,,,,,,,,,,,,,,,,,
,,,,,,,,,,,,TestWords/DAI_RU_CHI.wav,,5e13a1381e2e589db94cd20b,58,2021-03-25_02h15.54.603,CombinedMST_OA,2020.2.10,MacIntel,60,,,,,,,,,,,,,,,,,,,,,1,1,1.40436,0,90,90,90,1,1,OLD,OLD,A,,,,,,,,,,,,,,,,,,,,,,,,,,,,,,,,,,,,,,,,,,,,,,,,,,,,,,,,,,,,,,,,,,,,,,,,,,,,,,,,
,,,,,,,,,,,,TestWords/FU_RAI_ZO.wav,,5e13a1381e2e589db94cd20b,58,2021-03-25_02h15.54.603,CombinedMST_OA,2020.2.10,MacIntel,60,,,,,,,,,,,,,,,,,,,,,2,1,0.32303,0,91,91,91,1,2,NEW,SIMILAR,A,,,,,,,,,,,,,,,,,,,,,,,,,,,,,,,,,,,,,,,,,,,,,,,,,,,,,,,,,,,,,,,,,,,,,,,,,,,,,,,,
,,,,,,,,,,,,TestWords/GU_CHAI_PI.wav,,5e13a1381e2e589db94cd20b,58,2021-03-25_02h15.54.603,CombinedMST_OA,2020.2.10,MacIntel,60,,,,,,,,,,,,,,,,,,,,,2,1,1.353265,0,92,92,92,1,2,NEW,NEW,A,,,,,,,,,,,,,,,,,,,,,,,,,,,,,,,,,,,,,,,,,,,,,,,,,,,,,,,,,,,,,,,,,,,,,,,,,,,,,,,,
,,,,,,,,,,,,TestWords/GA_MU_ZI.wav,,5e13a1381e2e589db94cd20b,58,2021-03-25_02h15.54.603,CombinedMST_OA,2020.2.10,MacIntel,60,,,,,,,,,,,,,,,,,,,,,2,0,1.620845,0,93,93,93,1,1,OLD,OLD,A,,,,,,,,,,,,,,,,,,,,,,,,,,,,,,,,,,,,,,,,,,,,,,,,,,,,,,,,,,,,,,,,,,,,,,,,,,,,,,,,
,,,,,,,,,,,,TestWords/DAI_RU_CHI.wav,,5e13a1381e2e589db94cd20b,58,2021-03-25_02h15.54.603,CombinedMST_OA,2020.2.10,MacIntel,60,,,,,,,,,,,,,,,,,,,,,1,1,0.64675,0,94,94,94,1,1,OLD,OLD,A,,,,,,,,,,,,,,,,,,,,,,,,,,,,,,,,,,,,,,,,,,,,,,,,,,,,,,,,,,,,,,,,,,,,,,,,,,,,,,,,
,,,,,,,,,,,,TestWords/FU_ZO_RAI.wav,,5e13a1381e2e589db94cd20b,58,2021-03-25_02h15.54.603,CombinedMST_OA,2020.2.10,MacIntel,60,,,,,,,,,,,,,,,,,,,,,2,1,0.95538,0,95,95,95,1,2,NEW,SIMILAR,A,,,,,,,,,,,,,,,,,,,,,,,,,,,,,,,,,,,,,,,,,,,,,,,,,,,,,,,,,,,,,,,,,,,,,,,,,,,,,,,,
,,,,,,,,,,,,TestWords/VAI_HO_LA.wav,,5e13a1381e2e589db94cd20b,58,2021-03-25_02h15.54.603,CombinedMST_OA,2020.2.10,MacIntel,60,,,,,,,,,,,,,,,,,,,,,2,1,0.55298,0,96,96,96,1,2,NEW,NEW,A,,,,,,,,,,,,,,,,,,,,,,,,,,,,,,,,,,,,,,,,,,,,,,,,,,,,,,,,,,,,,,,,,,,,,,,,,,,,,,,,
,,,,,,,,,,,,TestWords/DAI_RU_CHI.wav,,5e13a1381e2e589db94cd20b,58,2021-03-25_02h15.54.603,CombinedMST_OA,2020.2.10,MacIntel,60,,,,,,,,,,,,,,,,,,,,,1,1,0.467285,0,97,97,97,1,1,OLD,OLD,A,,,,,,,,,,,,,,,,,,,,,,,,,,,,,,,,,,,,,,,,,,,,,,,,,,,,,,,,,,,,,,,,,,,,,,,,,,,,,,,,
,,,,,,,,,,,,TestWords/LA_ZAY_CHAI.wav,,5e13a1381e2e589db94cd20b,58,2021-03-25_02h15.54.603,CombinedMST_OA,2020.2.10,MacIntel,60,,,,,,,,,,,,,,,,,,,,,2,1,0.896595,0,98,98,98,1,2,NEW,NEW,A,,,,,,,,,,,,,,,,,,,,,,,,,,,,,,,,,,,,,,,,,,,,,,,,,,,,,,,,,,,,,,,,,,,,,,,,,,,,,,,,
,,,,,,,,,,,,TestWords/RAI_FU_ZO.wav,,5e13a1381e2e589db94cd20b,58,2021-03-25_02h15.54.603,CombinedMST_OA,2020.2.10,MacIntel,60,,,,,,,,,,,,,,,,,,,,,1,0,1.548215,0,99,99,99,1,2,NEW,SIMILAR,A,,,,,,,,,,,,,,,,,,,,,,,,,,,,,,,,,,,,,,,,,,,,,,,,,,,,,,,,,,,,,,,,,,,,,,,,,,,,,,,,
,,,,,,,,,,,,,2,5e13a1381e2e589db94cd20b,58,2021-03-25_02h15.54.603,CombinedMST_OA,2020.2.10,MacIntel,60,,,,,,,,,,,,,,,,,SyllableCheck/SU.wav,,,,,,,,,,,,,,,,return,24.234905,Blue,space,17.46916,3,0,28.47068,0,0,0,1,1,SU,SO,SU,ZU,,,,,,,,,,,,,,,,,,,,,,,,,,,,,,,,,,,,,,,,,,,,,,,,,,,,,,,,,,,,,,,
,,,,,,,,,,,,,2,5e13a1381e2e589db94cd20b,58,2021-03-25_02h15.54.603,CombinedMST_OA,2020.2.10,MacIntel,60,,,,,,,,,,,,,,,,,SyllableCheck/KAY.wav,,,,,,,,,,,,,,,,,,,,,2,1,2.79043,0,1,1,2,1,KAY,KEE,KAY,HAY,,,,,,,,,,,,,,,,,,,,,,,,,,,,,,,,,,,,,,,,,,,,,,,,,,,,,,,,,,,,,,,
,,,,,,,,,,,,,3,5e13a1381e2e589db94cd20b,58,2021-03-25_02h15.54.603,CombinedMST_OA,2020.2.10,MacIntel,60,,,,,,,,,,,,,,,,,SyllableCheck/BA.wav,,,,,,,,,,,,,,,,,,,,,3,1,2.152795,0,2,2,4,1,BA,PA,BEE,BA,,,,,,,,,,,,,,,,,,,,,,,,,,,,,,,,,,,,,,,,,,,,,,,,,,,,,,,,,,,,,,,
,,,,,,,,,,,,,1,5e13a1381e2e589db94cd20b,58,2021-03-25_02h15.54.603,CombinedMST_OA,2020.2.10,MacIntel,60,,,,,,,,,,,,,,,,,SyllableCheck/TI.wav,,,,,,,,,,,,,,,,,,,,,1,1,3.083755,0,3,3,0,1,TI,TEE,DEE,SEE,,,,,,,,,,,,,,,,,,,,,,,,,,,,,,,,,,,,,,,,,,,,,,,,,,,,,,,,,,,,,,,
,,,,,,,,,,,,,3,5e13a1381e2e589db94cd20b,58,2021-03-25_02h15.54.603,CombinedMST_OA,2020.2.10,MacIntel,60,,,,,,,,,,,,,,,,,SyllableCheck/FU.wav,,,,,,,,,,,,,,,,,,,,,3,1,2.770655,0,4,4,3,1,FU,VU,FO,FU,,,,,,,,,,,,,,,,,,,,,,,,,,,,,,,,,,,,,,,,,,,,,,,,,,,,,,,,,,,,,,,
,,,,,,,,,,,,,,5e13a1381e2e589db94cd20b,58,2021-03-25_02h15.54.603,CombinedMST_OA,2020.2.10,MacIntel,60,,,,,,,,,,,,,,,,,,,,,,,,,,,,,,,,,,,,,,,,,,,,,,,,,,0,0,0,0,1,,,,,,,,,,,,,,,,,,,,,,,,,,,,,,,,,,,,,,,,,,,,,,,,,,,,,,,,,,
,,,,,,,,,,,,,,5e13a1381e2e589db94cd20b,58,2021-03-25_02h15.54.603,CombinedMST_OA,2020.2.10,MacIntel,60,,,,,,,,,,,,,,,,,,,,,,,,,,,,,,,,,,,,,,,,,,,,,,,,,,,,,,,0,0,0,0,1,1,0,,,,,,,,,,,,,,,,,,,,,,,,,,,,,,,,,,,,,,,,,,,,,,,,,,,
,,,,,,,,,,,,,,5e13a1381e2e589db94cd20b,58,2021-03-25_02h15.54.603,CombinedMST_OA,2020.2.10,MacIntel,60,space,50.224365,,,,,space,6.27387,,,,,,,,,,,,,,,,,,,,,,,,,,,,,,,,,,,,,,,,,,,,,,,,,,,,,,space,19.417535,space,8.609045,2,1,2.635365,0,0,0,0,1,Practice/Seagull_A.wav,2,3,NEW,Practice,,,,,,,,,,,,,,,,,,,,,,,,,,,,,,,,,,
,,,,,,,,,,,,,,5e13a1381e2e589db94cd20b,58,2021-03-25_02h15.54.603,CombinedMST_OA,2020.2.10,MacIntel,60,,,,,,,,,,,,,,,,,,,,,,,,,,,,,,,,,,,,,,,,,,,,,,,,,,,,,,,,,,,,,,,,,,2,1,1.36984,0,1,1,1,1,Practice/Skid_B.wav,2,3,NEW,Practice,,,,,,,,,,,,,,,,,,,,,,,,,,,,,,,,,,
,,,,,,,,,,,,,,5e13a1381e2e589db94cd20b,58,2021-03-25_02h15.54.603,CombinedMST_OA,2020.2.10,MacIntel,60,,,,,,,,,,,,,,,,,,,,,,,,,,,,,,,,,,,,,,,,,,,,,,,,,,,,,,,,,,,,,,,,,,1,1,2.870115,0,2,2,2,1,Practice/Seagull_A.wav,1,1,OLD,Practice,,,,,,,,,,,,,,,,,,,,,,,,,,,,,,,,,,
,,,,,,,,,,,,,,5e13a1381e2e589db94cd20b,58,2021-03-25_02h15.54.603,CombinedMST_OA,2020.2.10,MacIntel,60,,,,,,,,,,,,,,,,,,,,,,,,,,,,,,,,,,,,,,,,,,,,,,,,,,,,,,,,,,,,,,,,,,2,1,0.884265,0,3,3,3,1,Practice/Gargle_A.wav,2,3,NEW,Practice,,,,,,,,,,,,,,,,,,,,,,,,,,,,,,,,,,
,,,,,,,,,,,,,,5e13a1381e2e589db94cd20b,58,2021-03-25_02h15.54.603,CombinedMST_OA,2020.2.10,MacIntel,60,,,,,,,,,,,,,,,,,,,,,,,,,,,,,,,,,,,,,,,,,,,,,,,,,,,,,,,,,,,,,,,,,,2,1,1.217065,0,4,4,4,1,Practice/Gargle_B.wav,2,2,SIMILAR,Practice,,,,,,,,,,,,,,,,,,,,,,,,,,,,,,,,,,
,,,,,,,,,,,,,,5e13a1381e2e589db94cd20b,58,2021-03-25_02h15.54.603,CombinedMST_OA,2020.2.10,MacIntel,60,,,,,,,,,,,,,,,,,,,,,,,,,,,,,,,,,,,,,,,,,,,,,,,,,,,,,,,,,,,,,,,,,,,,,,,,,,SoundMST/Airplane_B.wav,2,3,NEW,D,space,6.84349,2,1,3.62181,0,0,0,0,1,,,,,,,,,,,,,,,,,,,,,,,,
,,,,,,,,,,,,,,5e13a1381e2e589db94cd20b,58,2021-03-25_02h15.54.603,CombinedMST_OA,2020.2.10,MacIntel,60,,,,,,,,,,,,,,,,,,,,,,,,,,,,,,,,,,,,,,,,,,,,,,,,,,,,,,,,,,,,,,,,,,,,,,,,,,SoundMST/Sneeze_B.wav,2,3,NEW,D,,,2,1,0.687255,0,1,1,1,1,,,,,,,,,,,,,,,,,,,,,,,,
,,,,,,,,,,,,,,5e13a1381e2e589db94cd20b,58,2021-03-25_02h15.54.603,CombinedMST_OA,2020.2.10,MacIntel,60,,,,,,,,,,,,,,,,,,,,,,,,,,,,,,,,,,,,,,,,,,,,,,,,,,,,,,,,,,,,,,,,,,,,,,,,,,SoundMST/Siren_E.wav,2,3,NEW,D,,,2,1,0.233095,0,2,2,2,1,,,,,,,,,,,,,,,,,,,,,,,,
,,,,,,,,,,,,,,5e13a1381e2e589db94cd20b,58,2021-03-25_02h15.54.603,CombinedMST_OA,2020.2.10,MacIntel,60,,,,,,,,,,,,,,,,,,,,,,,,,,,,,,,,,,,,,,,,,,,,,,,,,,,,,,,,,,,,,,,,,,,,,,,,,,SoundMST/Whistle_B.wav,2,3,NEW,D,,,2,1,0.50068,0,3,3,3,1,,,,,,,,,,,,,,,,,,,,,,,,
,,,,,,,,,,,,,,5e13a1381e2e589db94cd20b,58,2021-03-25_02h15.54.603,CombinedMST_OA,2020.2.10,MacIntel,60,,,,,,,,,,,,,,,,,,,,,,,,,,,,,,,,,,,,,,,,,,,,,,,,,,,,,,,,,,,,,,,,,,,,,,,,,,SoundMST/Cup.wav,2,3,NEW,D,,,2,1,0.501785,0,4,4,4,1,,,,,,,,,,,,,,,,,,,,,,,,
,,,,,,,,,,,,,,5e13a1381e2e589db94cd20b,58,2021-03-25_02h15.54.603,CombinedMST_OA,2020.2.10,MacIntel,60,,,,,,,,,,,,,,,,,,,,,,,,,,,,,,,,,,,,,,,,,,,,,,,,,,,,,,,,,,,,,,,,,,,,,,,,,,SoundMST/Writing_A.wav,2,3,NEW,D,,,2,1,0.602635,0,5,5,5,1,,,,,,,,,,,,,,,,,,,,,,,,
,,,,,,,,,,,,,,5e13a1381e2e589db94cd20b,58,2021-03-25_02h15.54.603,CombinedMST_OA,2020.2.10,MacIntel,60,,,,,,,,,,,,,,,,,,,,,,,,,,,,,,,,,,,,,,,,,,,,,,,,,,,,,,,,,,,,,,,,,,,,,,,,,,SoundMST/Bullfrog.wav,2,3,NEW,D,,,2,1,0.48436,0,6,6,6,1,,,,,,,,,,,,,,,,,,,,,,,,
,,,,,,,,,,,,,,5e13a1381e2e589db94cd20b,58,2021-03-25_02h15.54.603,CombinedMST_OA,2020.2.10,MacIntel,60,,,,,,,,,,,,,,,,,,,,,,,,,,,,,,,,,,,,,,,,,,,,,,,,,,,,,,,,,,,,,,,,,,,,,,,,,,SoundMST/Slurp.wav,2,3,NEW,D,,,2,1,0.9401,0,7,7,7,1,,,,,,,,,,,,,,,,,,,,,,,,
,,,,,,,,,,,,,,5e13a1381e2e589db94cd20b,58,2021-03-25_02h15.54.603,CombinedMST_OA,2020.2.10,MacIntel,60,,,,,,,,,,,,,,,,,,,,,,,,,,,,,,,,,,,,,,,,,,,,,,,,,,,,,,,,,,,,,,,,,,,,,,,,,,SoundMST/Droplet_B.wav,2,3,NEW,D,,,2,1,0.669895,0,8,8,8,1,,,,,,,,,,,,,,,,,,,,,,,,
,,,,,,,,,,,,,,5e13a1381e2e589db94cd20b,58,2021-03-25_02h15.54.603,CombinedMST_OA,2020.2.10,MacIntel,60,,,,,,,,,,,,,,,,,,,,,,,,,,,,,,,,,,,,,,,,,,,,,,,,,,,,,,,,,,,,,,,,,,,,,,,,,,SoundMST/Fireworks.wav,2,3,NEW,D,,,2,1,0.55098,0,9,9,9,1,,,,,,,,,,,,,,,,,,,,,,,,
,,,,,,,,,,,,,,5e13a1381e2e589db94cd20b,58,2021-03-25_02h15.54.603,CombinedMST_OA,2020.2.10,MacIntel,60,,,,,,,,,,,,,,,,,,,,,,,,,,,,,,,,,,,,,,,,,,,,,,,,,,,,,,,,,,,,,,,,,,,,,,,,,,SoundMST/Sleighbells_B.wav,2,3,NEW,D,,,2,1,0.617755,0,10,10,10,1,,,,,,,,,,,,,,,,,,,,,,,,
,,,,,,,,,,,,,,5e13a1381e2e589db94cd20b,58,2021-03-25_02h15.54.603,CombinedMST_OA,2020.2.10,MacIntel,60,,,,,,,,,,,,,,,,,,,,,,,,,,,,,,,,,,,,,,,,,,,,,,,,,,,,,,,,,,,,,,,,,,,,,,,,,,SoundMST/Howl.wav,2,3,NEW,D,,,2,1,0.534165,0,11,11,11,1,,,,,,,,,,,,,,,,,,,,,,,,
,,,,,,,,,,,,,,5e13a1381e2e589db94cd20b,58,2021-03-25_02h15.54.603,CombinedMST_OA,2020.2.10,MacIntel,60,,,,,,,,,,,,,,,,,,,,,,,,,,,,,,,,,,,,,,,,,,,,,,,,,,,,,,,,,,,,,,,,,,,,,,,,,,SoundMST/Airplane_B.wav,1,1,OLD,D,,,1,1,1.33541,0,12,12,12,1,,,,,,,,,,,,,,,,,,,,,,,,
,,,,,,,,,,,,,,5e13a1381e2e589db94cd20b,58,2021-03-25_02h15.54.603,CombinedMST_OA,2020.2.10,MacIntel,60,,,,,,,,,,,,,,,,,,,,,,,,,,,,,,,,,,,,,,,,,,,,,,,,,,,,,,,,,,,,,,,,,,,,,,,,,,SoundMST/Phone_D.wav,2,3,NEW,D,,,2,1,1.21836,0,13,13,13,1,,,,,,,,,,,,,,,,,,,,,,,,
,,,,,,,,,,,,,,5e13a1381e2e589db94cd20b,58,2021-03-25_02h15.54.603,CombinedMST_OA,2020.2.10,MacIntel,60,,,,,,,,,,,,,,,,,,,,,,,,,,,,,,,,,,,,,,,,,,,,,,,,,,,,,,,,,,,,,,,,,,,,,,,,,,SoundMST/Siren_A.wav,2,2,SIMILAR,D,,,2,1,0.701125,0,14,14,14,1,,,,,,,,,,,,,,,,,,,,,,,,
,,,,,,,,,,,,,,5e13a1381e2e589db94cd20b,58,2021-03-25_02h15.54.603,CombinedMST_OA,2020.2.10,MacIntel,60,,,,,,,,,,,,,,,,,,,,,,,,,,,,,,,,,,,,,,,,,,,,,,,,,,,,,,,,,,,,,,,,,,,,,,,,,,SoundMST/ManWhistle.wav,2,3,NEW,D,,,2,1,0.474585,0,15,15,15,1,,,,,,,,,,,,,,,,,,,,,,,,
,,,,,,,,,,,,,,5e13a1381e2e589db94cd20b,58,2021-03-25_02h15.54.603,CombinedMST_OA,2020.2.10,MacIntel,60,,,,,,,,,,,,,,,,,,,,,,,,,,,,,,,,,,,,,,,,,,,,,,,,,,,,,,,,,,,,,,,,,,,,,,,,,,SoundMST/Bagpipe.wav,2,3,NEW,D,,,2,1,0.451095,0,16,16,16,1,,,,,,,,,,,,,,,,,,,,,,,,
,,,,,,,,,,,,,,5e13a1381e2e589db94cd20b,58,2021-03-25_02h15.54.603,CombinedMST_OA,2020.2.10,MacIntel,60,,,,,,,,,,,,,,,,,,,,,,,,,,,,,,,,,,,,,,,,,,,,,,,,,,,,,,,,,,,,,,,,,,,,,,,,,,SoundMST/Sneeze_B.wav,1,1,OLD,D,,,1,1,0.90152,0,17,17,17,1,,,,,,,,,,,,,,,,,,,,,,,,
,,,,,,,,,,,,,,5e13a1381e2e589db94cd20b,58,2021-03-25_02h15.54.603,CombinedMST_OA,2020.2.10,MacIntel,60,,,,,,,,,,,,,,,,,,,,,,,,,,,,,,,,,,,,,,,,,,,,,,,,,,,,,,,,,,,,,,,,,,,,,,,,,,SoundMST/Clap_B.wav,2,3,NEW,D,,,2,1,0.93492,0,18,18,18,1,,,,,,,,,,,,,,,,,,,,,,,,
,,,,,,,,,,,,,,5e13a1381e2e589db94cd20b,58,2021-03-25_02h15.54.603,CombinedMST_OA,2020.2.10,MacIntel,60,,,,,,,,,,,,,,,,,,,,,,,,,,,,,,,,,,,,,,,,,,,,,,,,,,,,,,,,,,,,,,,,,,,,,,,,,,SoundMST/Typing.wav,2,3,NEW,D,,,2,1,1.001685,0,19,19,19,1,,,,,,,,,,,,,,,,,,,,,,,,
,,,,,,,,,,,,,,5e13a1381e2e589db94cd20b,58,2021-03-25_02h15.54.603,CombinedMST_OA,2020.2.10,MacIntel,60,,,,,,,,,,,,,,,,,,,,,,,,,,,,,,,,,,,,,,,,,,,,,,,,,,,,,,,,,,,,,,,,,,,,,,,,,,SoundMST/Buzz.wav,2,3,NEW,D,,,2,1,1.15399,0,20,20,20,1,,,,,,,,,,,,,,,,,,,,,,,,
,,,,,,,,,,,,,,5e13a1381e2e589db94cd20b,58,2021-03-25_02h15.54.603,CombinedMST_OA,2020.2.10,MacIntel,60,,,,,,,,,,,,,,,,,,,,,,,,,,,,,,,,,,,,,,,,,,,,,,,,,,,,,,,,,,,,,,,,,,,,,,,,,,SoundMST/Whistle_C.wav,2,2,SIMILAR,D,,,1,0,1.975855,0,21,21,21,1,,,,,,,,,,,,,,,,,,,,,,,,
,,,,,,,,,,,,,,5e13a1381e2e589db94cd20b,58,2021-03-25_02h15.54.603,CombinedMST_OA,2020.2.10,MacIntel,60,,,,,,,,,,,,,,,,,,,,,,,,,,,,,,,,,,,,,,,,,,,,,,,,,,,,,,,,,,,,,,,,,,,,,,,,,,SoundMST/Cat_A.wav,2,3,NEW,D,,,2,1,0.46793,0,22,22,22,1,,,,,,,,,,,,,,,,,,,,,,,,
,,,,,,,,,,,,,,5e13a1381e2e589db94cd20b,58,2021-03-25_02h15.54.603,CombinedMST_OA,2020.2.10,MacIntel,60,,,,,,,,,,,,,,,,,,,,,,,,,,,,,,,,,,,,,,,,,,,,,,,,,,,,,,,,,,,,,,,,,,,,,,,,,,SoundMST/Cup.wav,1,1,OLD,D,,,1,1,0.83466,0,23,23,23,1,,,,,,,,,,,,,,,,,,,,,,,,
,,,,,,,,,,,,,,5e13a1381e2e589db94cd20b,58,2021-03-25_02h15.54.603,CombinedMST_OA,2020.2.10,MacIntel,60,,,,,,,,,,,,,,,,,,,,,,,,,,,,,,,,,,,,,,,,,,,,,,,,,,,,,,,,,,,,,,,,,,,,,,,,,,SoundMST/Bowlingpins.wav,2,3,NEW,D,,,2,1,0.317525,0,24,24,24,1,,,,,,,,,,,,,,,,,,,,,,,,
,,,,,,,,,,,,,,5e13a1381e2e589db94cd20b,58,2021-03-25_02h15.54.603,CombinedMST_OA,2020.2.10,MacIntel,60,,,,,,,,,,,,,,,,,,,,,,,,,,,,,,,,,,,,,,,,,,,,,,,,,,,,,,,,,,,,,,,,,,,,,,,,,,SoundMST/Slurp.wav,1,1,OLD,D,,,1,1,0.96806,0,25,25,25,1,,,,,,,,,,,,,,,,,,,,,,,,
,,,,,,,,,,,,,,5e13a1381e2e589db94cd20b,58,2021-03-25_02h15.54.603,CombinedMST_OA,2020.2.10,MacIntel,60,,,,,,,,,,,,,,,,,,,,,,,,,,,,,,,,,,,,,,,,,,,,,,,,,,,,,,,,,,,,,,,,,,,,,,,,,,SoundMST/Writing_C.wav,2,2,SIMILAR,D,,,1,0,2.114975,0,26,26,26,1,,,,,,,,,,,,,,,,,,,,,,,,
,,,,,,,,,,,,,,5e13a1381e2e589db94cd20b,58,2021-03-25_02h15.54.603,CombinedMST_OA,2020.2.10,MacIntel,60,,,,,,,,,,,,,,,,,,,,,,,,,,,,,,,,,,,,,,,,,,,,,,,,,,,,,,,,,,,,,,,,,,,,,,,,,,SoundMST/Crow_B.wav,2,3,NEW,D,,,2,1,0.474255,0,27,27,27,1,,,,,,,,,,,,,,,,,,,,,,,,
,,,,,,,,,,,,,,5e13a1381e2e589db94cd20b,58,2021-03-25_02h15.54.603,CombinedMST_OA,2020.2.10,MacIntel,60,,,,,,,,,,,,,,,,,,,,,,,,,,,,,,,,,,,,,,,,,,,,,,,,,,,,,,,,,,,,,,,,,,,,,,,,,,SoundMST/Bullfrog.wav,1,1,OLD,D,,,1,1,0.93487,0,28,28,28,1,,,,,,,,,,,,,,,,,,,,,,,,
,,,,,,,,,,,,,,5e13a1381e2e589db94cd20b,58,2021-03-25_02h15.54.603,CombinedMST_OA,2020.2.10,MacIntel,60,,,,,,,,,,,,,,,,,,,,,,,,,,,,,,,,,,,,,,,,,,,,,,,,,,,,,,,,,,,,,,,,,,,,,,,,,,SoundMST/Fireworks.wav,1,1,OLD,D,,,2,0,0.75149,0,29,29,29,1,,,,,,,,,,,,,,,,,,,,,,,,
,,,,,,,,,,,,,,5e13a1381e2e589db94cd20b,58,2021-03-25_02h15.54.603,CombinedMST_OA,2020.2.10,MacIntel,60,,,,,,,,,,,,,,,,,,,,,,,,,,,,,,,,,,,,,,,,,,,,,,,,,,,,,,,,,,,,,,,,,,,,,,,,,,SoundMST/Helicopter_A.wav,2,3,NEW,D,,,2,1,1.9191,0,30,30,30,1,,,,,,,,,,,,,,,,,,,,,,,,
,,,,,,,,,,,,,,5e13a1381e2e589db94cd20b,58,2021-03-25_02h15.54.603,CombinedMST_OA,2020.2.10,MacIntel,60,,,,,,,,,,,,,,,,,,,,,,,,,,,,,,,,,,,,,,,,,,,,,,,,,,,,,,,,,,,,,,,,,,,,,,,,,,SoundMST/Printer.wav,2,3,NEW,D,,,2,1,0.502215,0,31,31,31,1,,,,,,,,,,,,,,,,,,,,,,,,
,,,,,,,,,,,,,,5e13a1381e2e589db94cd20b,58,2021-03-25_02h15.54.603,CombinedMST_OA,2020.2.10,MacIntel,60,,,,,,,,,,,,,,,,,,,,,,,,,,,,,,,,,,,,,,,,,,,,,,,,,,,,,,,,,,,,,,,,,,,,,,,,,,SoundMST/Sleighbells_B.wav,1,1,OLD,D,,,1,1,0.1838,0,32,32,32,1,,,,,,,,,,,,,,,,,,,,,,,,
,,,,,,,,,,,,,,5e13a1381e2e589db94cd20b,58,2021-03-25_02h15.54.603,CombinedMST_OA,2020.2.10,MacIntel,60,,,,,,,,,,,,,,,,,,,,,,,,,,,,,,,,,,,,,,,,,,,,,,,,,,,,,,,,,,,,,,,,,,,,,,,,,,SoundMST/Camera.wav,2,3,NEW,D,,,2,1,0.915625,0,33,33,33,1,,,,,,,,,,,,,,,,,,,,,,,,
,,,,,,,,,,,,,,5e13a1381e2e589db94cd20b,58,2021-03-25_02h15.54.603,CombinedMST_OA,2020.2.10,MacIntel,60,,,,,,,,,,,,,,,,,,,,,,,,,,,,,,,,,,,,,,,,,,,,,,,,,,,,,,,,,,,,,,,,,,,,,,,,,,SoundMST/Clap_C.wav,2,2,SIMILAR,D,,,1,0,0.30092,0,34,34,34,1,,,,,,,,,,,,,,,,,,,,,,,,
,,,,,,,,,,,,,,5e13a1381e2e589db94cd20b,58,2021-03-25_02h15.54.603,CombinedMST_OA,2020.2.10,MacIntel,60,,,,,,,,,,,,,,,,,,,,,,,,,,,,,,,,,,,,,,,,,,,,,,,,,,,,,,,,,,,,,,,,,,,,,,,,,,SoundMST/Droplet_B.wav,1,1,OLD,D,,,1,1,1.019625,0,35,35,35,1,,,,,,,,,,,,,,,,,,,,,,,,
,,,,,,,,,,,,,,5e13a1381e2e589db94cd20b,58,2021-03-25_02h15.54.603,CombinedMST_OA,2020.2.10,MacIntel,60,,,,,,,,,,,,,,,,,,,,,,,,,,,,,,,,,,,,,,,,,,,,,,,,,,,,,,,,,,,,,,,,,,,,,,,,,,SoundMST/Phone_E.wav,2,2,SIMILAR,D,,,2,1,0.65115,0,36,36,36,1,,,,,,,,,,,,,,,,,,,,,,,,
,,,,,,,,,,,,,,5e13a1381e2e589db94cd20b,58,2021-03-25_02h15.54.603,CombinedMST_OA,2020.2.10,MacIntel,60,,,,,,,,,,,,,,,,,,,,,,,,,,,,,,,,,,,,,,,,,,,,,,,,,,,,,,,,,,,,,,,,,,,,,,,,,,SoundMST/Piano_D.wav,2,3,NEW,D,,,2,1,0.763305,0,37,37,37,1,,,,,,,,,,,,,,,,,,,,,,,,
,,,,,,,,,,,,,,5e13a1381e2e589db94cd20b,58,2021-03-25_02h15.54.603,CombinedMST_OA,2020.2.10,MacIntel,60,,,,,,,,,,,,,,,,,,,,,,,,,,,,,,,,,,,,,,,,,,,,,,,,,,,,,,,,,,,,,,,,,,,,,,,,,,SoundMST/Howl.wav,1,1,OLD,D,,,1,1,0.75278,0,38,38,38,1,,,,,,,,,,,,,,,,,,,,,,,,
,,,,,,,,,,,,,,5e13a1381e2e589db94cd20b,58,2021-03-25_02h15.54.603,CombinedMST_OA,2020.2.10,MacIntel,60,,,,,,,,,,,,,,,,,,,,,,,,,,,,,,,,,,,,,,,,,,,,,,,,,,,,,,,,,,,,,,,,,,,,,,,,,,SoundMST/CarStart_E.wav,2,3,NEW,D,,,2,1,1.085045,0,39,39,39,1,,,,,,,,,,,,,,,,,,,,,,,,
,,,,,,,,,,,,,,5e13a1381e2e589db94cd20b,58,2021-03-25_02h15.54.603,CombinedMST_OA,2020.2.10,MacIntel,60,,,,,,,,,,,,,,,,,,,,,,,,,,,,,,,,,,,,,,,,,,,,,,,,,,,,,,,,,,,,,,,,,,,,,,,,,,SoundMST/ManWhistle.wav,1,1,OLD,D,,,1,1,0.718115,0,40,40,40,1,,,,,,,,,,,,,,,,,,,,,,,,
,,,,,,,,,,,,,,5e13a1381e2e589db94cd20b,58,2021-03-25_02h15.54.603,CombinedMST_OA,2020.2.10,MacIntel,60,,,,,,,,,,,,,,,,,,,,,,,,,,,,,,,,,,,,,,,,,,,,,,,,,,,,,,,,,,,,,,,,,,,,,,,,,,SoundMST/Bagpipe.wav,1,1,OLD,D,,,1,1,0.0504,0,41,41,41,1,,,,,,,,,,,,,,,,,,,,,,,,
,,,,,,,,,,,,,,5e13a1381e2e589db94cd20b,58,2021-03-25_02h15.54.603,CombinedMST_OA,2020.2.10,MacIntel,60,,,,,,,,,,,,,,,,,,,,,,,,,,,,,,,,,,,,,,,,,,,,,,,,,,,,,,,,,,,,,,,,,,,,,,,,,,SoundMST/IceDrop.wav,2,3,NEW,D,,,2,1,0.45758,0,42,42,42,1,,,,,,,,,,,,,,,,,,,,,,,,
,,,,,,,,,,,,,,5e13a1381e2e589db94cd20b,58,2021-03-25_02h15.54.603,CombinedMST_OA,2020.2.10,MacIntel,60,,,,,,,,,,,,,,,,,,,,,,,,,,,,,,,,,,,,,,,,,,,,,,,,,,,,,,,,,,,,,,,,,,,,,,,,,,SoundMST/Cat_A.wav,1,1,OLD,D,,,1,1,0.584665,0,43,43,43,1,,,,,,,,,,,,,,,,,,,,,,,,
,,,,,,,,,,,,,,5e13a1381e2e589db94cd20b,58,2021-03-25_02h15.54.603,CombinedMST_OA,2020.2.10,MacIntel,60,,,,,,,,,,,,,,,,,,,,,,,,,,,,,,,,,,,,,,,,,,,,,,,,,,,,,,,,,,,,,,,,,,,,,,,,,,SoundMST/Typing.wav,1,1,OLD,D,,,1,1,0.734495,0,44,44,44,1,,,,,,,,,,,,,,,,,,,,,,,,
,,,,,,,,,,,,,,5e13a1381e2e589db94cd20b,58,2021-03-25_02h15.54.603,CombinedMST_OA,2020.2.10,MacIntel,60,,,,,,,,,,,,,,,,,,,,,,,,,,,,,,,,,,,,,,,,,,,,,,,,,,,,,,,,,,,,,,,,,,,,,,,,,,SoundMST/PaperRip.wav,2,3,NEW,D,,,2,1,4.95576,0,45,45,45,1,,,,,,,,,,,,,,,,,,,,,,,,
,,,,,,,,,,,,,,5e13a1381e2e589db94cd20b,58,2021-03-25_02h15.54.603,CombinedMST_OA,2020.2.10,MacIntel,60,,,,,,,,,,,,,,,,,,,,,,,,,,,,,,,,,,,,,,,,,,,,,,,,,,,,,,,,,,,,,,,,,,,,,,,,,,SoundMST/Buzz.wav,1,1,OLD,D,,,1,1,0.651385,0,46,46,46,1,,,,,,,,,,,,,,,,,,,,,,,,
,,,,,,,,,,,,,,5e13a1381e2e589db94cd20b,58,2021-03-25_02h15.54.603,CombinedMST_OA,2020.2.10,MacIntel,60,,,,,,,,,,,,,,,,,,,,,,,,,,,,,,,,,,,,,,,,,,,,,,,,,,,,,,,,,,,,,,,,,,,,,,,,,,SoundMST/Bowlingpins.wav,1,1,OLD,D,,,1,1,1.99997,0,47,47,47,1,,,,,,,,,,,,,,,,,,,,,,,,
,,,,,,,,,,,,,,5e13a1381e2e589db94cd20b,58,2021-03-25_02h15.54.603,CombinedMST_OA,2020.2.10,MacIntel,60,,,,,,,,,,,,,,,,,,,,,,,,,,,,,,,,,,,,,,,,,,,,,,,,,,,,,,,,,,,,,,,,,,,,,,,,,,SoundMST/Chime_B.wav,2,3,NEW,D,,,2,1,0.837855,0,48,48,48,1,,,,,,,,,,,,,,,,,,,,,,,,
,,,,,,,,,,,,,,5e13a1381e2e589db94cd20b,58,2021-03-25_02h15.54.603,CombinedMST_OA,2020.2.10,MacIntel,60,,,,,,,,,,,,,,,,,,,,,,,,,,,,,,,,,,,,,,,,,,,,,,,,,,,,,,,,,,,,,,,,,,,,,,,,,,SoundMST/Pour_B.wav,2,3,NEW,D,,,2,1,0.49852,0,49,49,49,1,,,,,,,,,,,,,,,,,,,,,,,,
,,,,,,,,,,,,,,5e13a1381e2e589db94cd20b,58,2021-03-25_02h15.54.603,CombinedMST_OA,2020.2.10,MacIntel,60,,,,,,,,,,,,,,,,,,,,,,,,,,,,,,,,,,,,,,,,,,,,,,,,,,,,,,,,,,,,,,,,,,,,,,,,,,SoundMST/Duck_A.wav,2,3,NEW,D,,,2,1,0.802445,0,50,50,50,1,,,,,,,,,,,,,,,,,,,,,,,,
,,,,,,,,,,,,,,5e13a1381e2e589db94cd20b,58,2021-03-25_02h15.54.603,CombinedMST_OA,2020.2.10,MacIntel,60,,,,,,,,,,,,,,,,,,,,,,,,,,,,,,,,,,,,,,,,,,,,,,,,,,,,,,,,,,,,,,,,,,,,,,,,,,SoundMST/Crow_A.wav,2,2,SIMILAR,D,,,2,1,0.634655,0,51,51,51,1,,,,,,,,,,,,,,,,,,,,,,,,
,,,,,,,,,,,,,,5e13a1381e2e589db94cd20b,58,2021-03-25_02h15.54.603,CombinedMST_OA,2020.2.10,MacIntel,60,,,,,,,,,,,,,,,,,,,,,,,,,,,,,,,,,,,,,,,,,,,,,,,,,,,,,,,,,,,,,,,,,,,,,,,,,,SoundMST/Footsteps_C.wav,2,3,NEW,D,,,2,1,0.4859,0,52,52,52,1,,,,,,,,,,,,,,,,,,,,,,,,
,,,,,,,,,,,,,,5e13a1381e2e589db94cd20b,58,2021-03-25_02h15.54.603,CombinedMST_OA,2020.2.10,MacIntel,60,,,,,,,,,,,,,,,,,,,,,,,,,,,,,,,,,,,,,,,,,,,,,,,,,,,,,,,,,,,,,,,,,,,,,,,,,,SoundMST/Helicopter_A.wav,1,1,OLD,D,,,1,1,0.183875,0,53,53,53,1,,,,,,,,,,,,,,,,,,,,,,,,
,,,,,,,,,,,,,,5e13a1381e2e589db94cd20b,58,2021-03-25_02h15.54.603,CombinedMST_OA,2020.2.10,MacIntel,60,,,,,,,,,,,,,,,,,,,,,,,,,,,,,,,,,,,,,,,,,,,,,,,,,,,,,,,,,,,,,,,,,,,,,,,,,,SoundMST/Piano_D.wav,1,1,OLD,D,,,1,1,0.6876,0,54,54,54,1,,,,,,,,,,,,,,,,,,,,,,,,
,,,,,,,,,,,,,,5e13a1381e2e589db94cd20b,58,2021-03-25_02h15.54.603,CombinedMST_OA,2020.2.10,MacIntel,60,,,,,,,,,,,,,,,,,,,,,,,,,,,,,,,,,,,,,,,,,,,,,,,,,,,,,,,,,,,,,,,,,,,,,,,,,,SoundMST/Coin_D.wav,2,3,NEW,D,,,2,1,0.735605,0,55,55,55,1,,,,,,,,,,,,,,,,,,,,,,,,
,,,,,,,,,,,,,,5e13a1381e2e589db94cd20b,58,2021-03-25_02h15.54.603,CombinedMST_OA,2020.2.10,MacIntel,60,,,,,,,,,,,,,,,,,,,,,,,,,,,,,,,,,,,,,,,,,,,,,,,,,,,,,,,,,,,,,,,,,,,,,,,,,,SoundMST/Printer.wav,1,1,OLD,D,,,2,0,0.48439,0,56,56,56,1,,,,,,,,,,,,,,,,,,,,,,,,
,,,,,,,,,,,,,,5e13a1381e2e589db94cd20b,58,2021-03-25_02h15.54.603,CombinedMST_OA,2020.2.10,MacIntel,60,,,,,,,,,,,,,,,,,,,,,,,,,,,,,,,,,,,,,,,,,,,,,,,,,,,,,,,,,,,,,,,,,,,,,,,,,,SoundMST/Steam.wav,2,3,NEW,D,,,2,1,0.63051,0,57,57,57,1,,,,,,,,,,,,,,,,,,,,,,,,
,,,,,,,,,,,,,,5e13a1381e2e589db94cd20b,58,2021-03-25_02h15.54.603,CombinedMST_OA,2020.2.10,MacIntel,60,,,,,,,,,,,,,,,,,,,,,,,,,,,,,,,,,,,,,,,,,,,,,,,,,,,,,,,,,,,,,,,,,,,,,,,,,,SoundMST/Camera.wav,1,1,OLD,D,,,1,1,4.761055,0,58,58,58,1,,,,,,,,,,,,,,,,,,,,,,,,
,,,,,,,,,,,,,,5e13a1381e2e589db94cd20b,58,2021-03-25_02h15.54.603,CombinedMST_OA,2020.2.10,MacIntel,60,,,,,,,,,,,,,,,,,,,,,,,,,,,,,,,,,,,,,,,,,,,,,,,,,,,,,,,,,,,,,,,,,,,,,,,,,,SoundMST/CarStart_D.wav,2,2,SIMILAR,D,,,2,1,0.73743,0,59,59,59,1,,,,,,,,,,,,,,,,,,,,,,,,
,,,,,,,,,,,,,,5e13a1381e2e589db94cd20b,58,2021-03-25_02h15.54.603,CombinedMST_OA,2020.2.10,MacIntel,60,,,,,,,,,,,,,,,,,,,,,,,,,,,,,,,,,,,,,,,,,,,,,,,,,,,,,,,,,,,,,,,,,,,,,,,,,,SoundMST/Donkey.wav,2,3,NEW,D,,,2,1,0.33403,0,60,60,60,1,,,,,,,,,,,,,,,,,,,,,,,,
,,,,,,,,,,,,,,5e13a1381e2e589db94cd20b,58,2021-03-25_02h15.54.603,CombinedMST_OA,2020.2.10,MacIntel,60,,,,,,,,,,,,,,,,,,,,,,,,,,,,,,,,,,,,,,,,,,,,,,,,,,,,,,,,,,,,,,,,,,,,,,,,,,SoundMST/Mosquito_B.wav,2,3,NEW,D,,,2,1,0.684695,0,61,61,61,1,,,,,,,,,,,,,,,,,,,,,,,,
,,,,,,,,,,,,,,5e13a1381e2e589db94cd20b,58,2021-03-25_02h15.54.603,CombinedMST_OA,2020.2.10,MacIntel,60,,,,,,,,,,,,,,,,,,,,,,,,,,,,,,,,,,,,,,,,,,,,,,,,,,,,,,,,,,,,,,,,,,,,,,,,,,SoundMST/PaperRip.wav,1,1,OLD,D,,,2,0,1.587595,0,62,62,62,1,,,,,,,,,,,,,,,,,,,,,,,,
,,,,,,,,,,,,,,5e13a1381e2e589db94cd20b,58,2021-03-25_02h15.54.603,CombinedMST_OA,2020.2.10,MacIntel,60,,,,,,,,,,,,,,,,,,,,,,,,,,,,,,,,,,,,,,,,,,,,,,,,,,,,,,,,,,,,,,,,,,,,,,,,,,SoundMST/Airhorn.wav,2,3,NEW,D,,,2,1,0.713555,0,63,63,63,1,,,,,,,,,,,,,,,,,,,,,,,,
,,,,,,,,,,,,,,5e13a1381e2e589db94cd20b,58,2021-03-25_02h15.54.603,CombinedMST_OA,2020.2.10,MacIntel,60,,,,,,,,,,,,,,,,,,,,,,,,,,,,,,,,,,,,,,,,,,,,,,,,,,,,,,,,,,,,,,,,,,,,,,,,,,SoundMST/Horse.wav,2,3,NEW,D,,,2,1,0.550965,0,64,64,64,1,,,,,,,,,,,,,,,,,,,,,,,,
,,,,,,,,,,,,,,5e13a1381e2e589db94cd20b,58,2021-03-25_02h15.54.603,CombinedMST_OA,2020.2.10,MacIntel,60,,,,,,,,,,,,,,,,,,,,,,,,,,,,,,,,,,,,,,,,,,,,,,,,,,,,,,,,,,,,,,,,,,,,,,,,,,SoundMST/Trumpet_B.wav,2,3,NEW,D,,,2,1,0.540545,0,65,65,65,1,,,,,,,,,,,,,,,,,,,,,,,,
,,,,,,,,,,,,,,5e13a1381e2e589db94cd20b,58,2021-03-25_02h15.54.603,CombinedMST_OA,2020.2.10,MacIntel,60,,,,,,,,,,,,,,,,,,,,,,,,,,,,,,,,,,,,,,,,,,,,,,,,,,,,,,,,,,,,,,,,,,,,,,,,,,SoundMST/Pour_C.wav,2,2,SIMILAR,D,,,2,1,3.87141,0,66,66,66,1,,,,,,,,,,,,,,,,,,,,,,,,
,,,,,,,,,,,,,,5e13a1381e2e589db94cd20b,58,2021-03-25_02h15.54.603,CombinedMST_OA,2020.2.10,MacIntel,60,,,,,,,,,,,,,,,,,,,,,,,,,,,,,,,,,,,,,,,,,,,,,,,,,,,,,,,,,,,,,,,,,,,,,,,,,,SoundMST/IceDrop.wav,1,1,OLD,D,,,1,1,1.321035,0,67,67,67,1,,,,,,,,,,,,,,,,,,,,,,,,
,,,,,,,,,,,,,,5e13a1381e2e589db94cd20b,58,2021-03-25_02h15.54.603,CombinedMST_OA,2020.2.10,MacIntel,60,,,,,,,,,,,,,,,,,,,,,,,,,,,,,,,,,,,,,,,,,,,,,,,,,,,,,,,,,,,,,,,,,,,,,,,,,,SoundMST/Hammer_A.wav,2,3,NEW,D,,,2,1,0.25646,0,68,68,68,1,,,,,,,,,,,,,,,,,,,,,,,,
,,,,,,,,,,,,,,5e13a1381e2e589db94cd20b,58,2021-03-25_02h15.54.603,CombinedMST_OA,2020.2.10,MacIntel,60,,,,,,,,,,,,,,,,,,,,,,,,,,,,,,,,,,,,,,,,,,,,,,,,,,,,,,,,,,,,,,,,,,,,,,,,,,SoundMST/Dog_H.wav,2,3,NEW,D,,,2,1,0.58795,0,69,69,69,1,,,,,,,,,,,,,,,,,,,,,,,,
,,,,,,,,,,,,,,5e13a1381e2e589db94cd20b,58,2021-03-25_02h15.54.603,CombinedMST_OA,2020.2.10,MacIntel,60,,,,,,,,,,,,,,,,,,,,,,,,,,,,,,,,,,,,,,,,,,,,,,,,,,,,,,,,,,,,,,,,,,,,,,,,,,SoundMST/Coin_E.wav,2,2,SIMILAR,D,,,2,1,0.785175,0,70,70,70,1,,,,,,,,,,,,,,,,,,,,,,,,
,,,,,,,,,,,,,,5e13a1381e2e589db94cd20b,58,2021-03-25_02h15.54.603,CombinedMST_OA,2020.2.10,MacIntel,60,,,,,,,,,,,,,,,,,,,,,,,,,,,,,,,,,,,,,,,,,,,,,,,,,,,,,,,,,,,,,,,,,,,,,,,,,,SoundMST/Chime_A.wav,2,2,SIMILAR,D,,,1,0,0.10074,0,71,71,71,1,,,,,,,,,,,,,,,,,,,,,,,,
,,,,,,,,,,,,,,5e13a1381e2e589db94cd20b,58,2021-03-25_02h15.54.603,CombinedMST_OA,2020.2.10,MacIntel,60,,,,,,,,,,,,,,,,,,,,,,,,,,,,,,,,,,,,,,,,,,,,,,,,,,,,,,,,,,,,,,,,,,,,,,,,,,SoundMST/Bubbles_A.wav,2,3,NEW,D,,,2,1,0.507235,0,72,72,72,1,,,,,,,,,,,,,,,,,,,,,,,,
,,,,,,,,,,,,,,5e13a1381e2e589db94cd20b,58,2021-03-25_02h15.54.603,CombinedMST_OA,2020.2.10,MacIntel,60,,,,,,,,,,,,,,,,,,,,,,,,,,,,,,,,,,,,,,,,,,,,,,,,,,,,,,,,,,,,,,,,,,,,,,,,,,SoundMST/Snore_C.wav,2,3,NEW,D,,,2,1,1.085065,0,73,73,73,1,,,,,,,,,,,,,,,,,,,,,,,,
,,,,,,,,,,,,,,5e13a1381e2e589db94cd20b,58,2021-03-25_02h15.54.603,CombinedMST_OA,2020.2.10,MacIntel,60,,,,,,,,,,,,,,,,,,,,,,,,,,,,,,,,,,,,,,,,,,,,,,,,,,,,,,,,,,,,,,,,,,,,,,,,,,SoundMST/Duck_B.wav,2,2,SIMILAR,D,,,2,1,1.820925,0,74,74,74,1,,,,,,,,,,,,,,,,,,,,,,,,
,,,,,,,,,,,,,,5e13a1381e2e589db94cd20b,58,2021-03-25_02h15.54.603,CombinedMST_OA,2020.2.10,MacIntel,60,,,,,,,,,,,,,,,,,,,,,,,,,,,,,,,,,,,,,,,,,,,,,,,,,,,,,,,,,,,,,,,,,,,,,,,,,,SoundMST/Mosquito_B.wav,1,1,OLD,D,,,1,1,0.534405,0,75,75,75,1,,,,,,,,,,,,,,,,,,,,,,,,
,,,,,,,,,,,,,,5e13a1381e2e589db94cd20b,58,2021-03-25_02h15.54.603,CombinedMST_OA,2020.2.10,MacIntel,60,,,,,,,,,,,,,,,,,,,,,,,,,,,,,,,,,,,,,,,,,,,,,,,,,,,,,,,,,,,,,,,,,,,,,,,,,,SoundMST/Footsteps_F.wav,2,2,SIMILAR,D,,,1,0,0.34916,0,76,76,76,1,,,,,,,,,,,,,,,,,,,,,,,,
,,,,,,,,,,,,,,5e13a1381e2e589db94cd20b,58,2021-03-25_02h15.54.603,CombinedMST_OA,2020.2.10,MacIntel,60,,,,,,,,,,,,,,,,,,,,,,,,,,,,,,,,,,,,,,,,,,,,,,,,,,,,,,,,,,,,,,,,,,,,,,,,,,SoundMST/Cow.wav,2,3,NEW,D,,,1,0,0.552735,0,77,77,77,1,,,,,,,,,,,,,,,,,,,,,,,,
,,,,,,,,,,,,,,5e13a1381e2e589db94cd20b,58,2021-03-25_02h15.54.603,CombinedMST_OA,2020.2.10,MacIntel,60,,,,,,,,,,,,,,,,,,,,,,,,,,,,,,,,,,,,,,,,,,,,,,,,,,,,,,,,,,,,,,,,,,,,,,,,,,SoundMST/Steam.wav,1,1,OLD,D,,,1,1,0.56768,0,78,78,78,1,,,,,,,,,,,,,,,,,,,,,,,,
,,,,,,,,,,,,,,5e13a1381e2e589db94cd20b,58,2021-03-25_02h15.54.603,CombinedMST_OA,2020.2.10,MacIntel,60,,,,,,,,,,,,,,,,,,,,,,,,,,,,,,,,,,,,,,,,,,,,,,,,,,,,,,,,,,,,,,,,,,,,,,,,,,SoundMST/Growl_G.wav,2,3,NEW,D,,,2,1,0.4009,0,79,79,79,1,,,,,,,,,,,,,,,,,,,,,,,,
,,,,,,,,,,,,,,5e13a1381e2e589db94cd20b,58,2021-03-25_02h15.54.603,CombinedMST_OA,2020.2.10,MacIntel,60,,,,,,,,,,,,,,,,,,,,,,,,,,,,,,,,,,,,,,,,,,,,,,,,,,,,,,,,,,,,,,,,,,,,,,,,,,SoundMST/Donkey.wav,1,1,OLD,D,,,1,1,1.151645,0,80,80,80,1,,,,,,,,,,,,,,,,,,,,,,,,
,,,,,,,,,,,,,,5e13a1381e2e589db94cd20b,58,2021-03-25_02h15.54.603,CombinedMST_OA,2020.2.10,MacIntel,60,,,,,,,,,,,,,,,,,,,,,,,,,,,,,,,,,,,,,,,,,,,,,,,,,,,,,,,,,,,,,,,,,,,,,,,,,,SoundMST/Goat_B.wav,2,3,NEW,D,,,2,1,0.66764,0,81,81,81,1,,,,,,,,,,,,,,,,,,,,,,,,
,,,,,,,,,,,,,,5e13a1381e2e589db94cd20b,58,2021-03-25_02h15.54.603,CombinedMST_OA,2020.2.10,MacIntel,60,,,,,,,,,,,,,,,,,,,,,,,,,,,,,,,,,,,,,,,,,,,,,,,,,,,,,,,,,,,,,,,,,,,,,,,,,,SoundMST/Horse.wav,1,1,OLD,D,,,1,1,0.23641,0,82,82,82,1,,,,,,,,,,,,,,,,,,,,,,,,
,,,,,,,,,,,,,,5e13a1381e2e589db94cd20b,58,2021-03-25_02h15.54.603,CombinedMST_OA,2020.2.10,MacIntel,60,,,,,,,,,,,,,,,,,,,,,,,,,,,,,,,,,,,,,,,,,,,,,,,,,,,,,,,,,,,,,,,,,,,,,,,,,,SoundMST/Faucet_A.wav,2,3,NEW,D,,,2,1,0.630075,0,83,83,83,1,,,,,,,,,,,,,,,,,,,,,,,,
,,,,,,,,,,,,,,5e13a1381e2e589db94cd20b,58,2021-03-25_02h15.54.603,CombinedMST_OA,2020.2.10,MacIntel,60,,,,,,,,,,,,,,,,,,,,,,,,,,,,,,,,,,,,,,,,,,,,,,,,,,,,,,,,,,,,,,,,,,,,,,,,,,SoundMST/Airhorn.wav,1,1,OLD,D,,,1,1,0.76797,0,84,84,84,1,,,,,,,,,,,,,,,,,,,,,,,,
,,,,,,,,,,,,,,5e13a1381e2e589db94cd20b,58,2021-03-25_02h15.54.603,CombinedMST_OA,2020.2.10,MacIntel,60,,,,,,,,,,,,,,,,,,,,,,,,,,,,,,,,,,,,,,,,,,,,,,,,,,,,,,,,,,,,,,,,,,,,,,,,,,SoundMST/HairDryer_A.wav,2,3,NEW,D,,,2,1,0.601125,0,85,85,85,1,,,,,,,,,,,,,,,,,,,,,,,,
,,,,,,,,,,,,,,5e13a1381e2e589db94cd20b,58,2021-03-25_02h15.54.603,CombinedMST_OA,2020.2.10,MacIntel,60,,,,,,,,,,,,,,,,,,,,,,,,,,,,,,,,,,,,,,,,,,,,,,,,,,,,,,,,,,,,,,,,,,,,,,,,,,SoundMST/Trumpet_B.wav,1,1,OLD,D,,,1,1,0.18471,0,86,86,86,1,,,,,,,,,,,,,,,,,,,,,,,,
,,,,,,,,,,,,,,5e13a1381e2e589db94cd20b,58,2021-03-25_02h15.54.603,CombinedMST_OA,2020.2.10,MacIntel,60,,,,,,,,,,,,,,,,,,,,,,,,,,,,,,,,,,,,,,,,,,,,,,,,,,,,,,,,,,,,,,,,,,,,,,,,,,SoundMST/Baby_F.wav,2,3,NEW,D,,,2,1,0.918065,0,87,87,87,1,,,,,,,,,,,,,,,,,,,,,,,,
,,,,,,,,,,,,,,5e13a1381e2e589db94cd20b,58,2021-03-25_02h15.54.603,CombinedMST_OA,2020.2.10,MacIntel,60,,,,,,,,,,,,,,,,,,,,,,,,,,,,,,,,,,,,,,,,,,,,,,,,,,,,,,,,,,,,,,,,,,,,,,,,,,SoundMST/Hammer_A.wav,1,1,OLD,D,,,2,0,2.368815,0,88,88,88,1,,,,,,,,,,,,,,,,,,,,,,,,
,,,,,,,,,,,,,,5e13a1381e2e589db94cd20b,58,2021-03-25_02h15.54.603,CombinedMST_OA,2020.2.10,MacIntel,60,,,,,,,,,,,,,,,,,,,,,,,,,,,,,,,,,,,,,,,,,,,,,,,,,,,,,,,,,,,,,,,,,,,,,,,,,,SoundMST/Cuckoo_A.wav,2,3,NEW,D,,,2,1,1.387375,0,89,89,89,1,,,,,,,,,,,,,,,,,,,,,,,,
,,,,,,,,,,,,,,5e13a1381e2e589db94cd20b,58,2021-03-25_02h15.54.603,CombinedMST_OA,2020.2.10,MacIntel,60,,,,,,,,,,,,,,,,,,,,,,,,,,,,,,,,,,,,,,,,,,,,,,,,,,,,,,,,,,,,,,,,,,,,,,,,,,SoundMST/Dog_F.wav,2,2,SIMILAR,D,,,2,1,2.47684,0,90,90,90,1,,,,,,,,,,,,,,,,,,,,,,,,
,,,,,,,,,,,,,,5e13a1381e2e589db94cd20b,58,2021-03-25_02h15.54.603,CombinedMST_OA,2020.2.10,MacIntel,60,,,,,,,,,,,,,,,,,,,,,,,,,,,,,,,,,,,,,,,,,,,,,,,,,,,,,,,,,,,,,,,,,,,,,,,,,,SoundMST/Bubbles_B.wav,2,2,SIMILAR,D,,,2,1,1.24859,0,91,91,91,1,,,,,,,,,,,,,,,,,,,,,,,,
,,,,,,,,,,,,,,5e13a1381e2e589db94cd20b,58,2021-03-25_02h15.54.603,CombinedMST_OA,2020.2.10,MacIntel,60,,,,,,,,,,,,,,,,,,,,,,,,,,,,,,,,,,,,,,,,,,,,,,,,,,,,,,,,,,,,,,,,,,,,,,,,,,SoundMST/Puff_A.wav,2,3,NEW,D,,,2,1,3.03944,0,92,92,92,1,,,,,,,,,,,,,,,,,,,,,,,,
,,,,,,,,,,,,,,5e13a1381e2e589db94cd20b,58,2021-03-25_02h15.54.603,CombinedMST_OA,2020.2.10,MacIntel,60,,,,,,,,,,,,,,,,,,,,,,,,,,,,,,,,,,,,,,,,,,,,,,,,,,,,,,,,,,,,,,,,,,,,,,,,,,SoundMST/Bird_C.wav,2,3,NEW,D,,,2,1,1.56885,0,93,93,93,1,,,,,,,,,,,,,,,,,,,,,,,,
,,,,,,,,,,,,,,5e13a1381e2e589db94cd20b,58,2021-03-25_02h15.54.603,CombinedMST_OA,2020.2.10,MacIntel,60,,,,,,,,,,,,,,,,,,,,,,,,,,,,,,,,,,,,,,,,,,,,,,,,,,,,,,,,,,,,,,,,,,,,,,,,,,SoundMST/Guitar_B.wav,2,3,NEW,D,,,2,1,0.300625,0,94,94,94,1,,,,,,,,,,,,,,,,,,,,,,,,
,,,,,,,,,,,,,,5e13a1381e2e589db94cd20b,58,2021-03-25_02h15.54.603,CombinedMST_OA,2020.2.10,MacIntel,60,,,,,,,,,,,,,,,,,,,,,,,,,,,,,,,,,,,,,,,,,,,,,,,,,,,,,,,,,,,,,,,,,,,,,,,,,,SoundMST/Snore_E.wav,2,2,SIMILAR,D,,,1,0,1.588655,0,95,95,95,1,,,,,,,,,,,,,,,,,,,,,,,,
,,,,,,,,,,,,,,5e13a1381e2e589db94cd20b,58,2021-03-25_02h15.54.603,CombinedMST_OA,2020.2.10,MacIntel,60,,,,,,,,,,,,,,,,,,,,,,,,,,,,,,,,,,,,,,,,,,,,,,,,,,,,,,,,,,,,,,,,,,,,,,,,,,SoundMST/Wind_B.wav,2,3,NEW,D,,,2,1,0.584475,0,96,96,96,1,,,,,,,,,,,,,,,,,,,,,,,,
,,,,,,,,,,,,,,5e13a1381e2e589db94cd20b,58,2021-03-25_02h15.54.603,CombinedMST_OA,2020.2.10,MacIntel,60,,,,,,,,,,,,,,,,,,,,,,,,,,,,,,,,,,,,,,,,,,,,,,,,,,,,,,,,,,,,,,,,,,,,,,,,,,SoundMST/Cow.wav,1,1,OLD,D,,,1,1,1.99253,0,97,97,97,1,,,,,,,,,,,,,,,,,,,,,,,,
,,,,,,,,,,,,,,5e13a1381e2e589db94cd20b,58,2021-03-25_02h15.54.603,CombinedMST_OA,2020.2.10,MacIntel,60,,,,,,,,,,,,,,,,,,,,,,,,,,,,,,,,,,,,,,,,,,,,,,,,,,,,,,,,,,,,,,,,,,,,,,,,,,SoundMST/Laugh_A.wav,2,3,NEW,D,,,2,1,0.98508,0,98,98,98,1,,,,,,,,,,,,,,,,,,,,,,,,
,,,,,,,,,,,,,,5e13a1381e2e589db94cd20b,58,2021-03-25_02h15.54.603,CombinedMST_OA,2020.2.10,MacIntel,60,,,,,,,,,,,,,,,,,,,,,,,,,,,,,,,,,,,,,,,,,,,,,,,,,,,,,,,,,,,,,,,,,,,,,,,,,,SoundMST/Chomp_A.wav,2,3,NEW,D,,,2,1,1.13468,0,99,99,99,1,,,,,,,,,,,,,,,,,,,,,,,,
,,,,,,,,,,,,,,5e13a1381e2e589db94cd20b,58,2021-03-25_02h15.54.603,CombinedMST_OA,2020.2.10,MacIntel,60,,,,,,,,,,,,,,,,,,,,,,,,,,,,,,,,,,,,,,,,,,,,,,,,,,,,,,,,,,,,,,,,,,,,,,,,,,SoundMST/Goat_C.wav,2,2,SIMILAR,D,,,1,0,0.350715,0,100,100,100,1,,,,,,,,,,,,,,,,,,,,,,,,
,,,,,,,,,,,,,,5e13a1381e2e589db94cd20b,58,2021-03-25_02h15.54.603,CombinedMST_OA,2020.2.10,MacIntel,60,,,,,,,,,,,,,,,,,,,,,,,,,,,,,,,,,,,,,,,,,,,,,,,,,,,,,,,,,,,,,,,,,,,,,,,,,,SoundMST/Chicken_A.wav,2,3,NEW,D,,,2,1,0.6346,0,101,101,101,1,,,,,,,,,,,,,,,,,,,,,,,,
,,,,,,,,,,,,,,5e13a1381e2e589db94cd20b,58,2021-03-25_02h15.54.603,CombinedMST_OA,2020.2.10,MacIntel,60,,,,,,,,,,,,,,,,,,,,,,,,,,,,,,,,,,,,,,,,,,,,,,,,,,,,,,,,,,,,,,,,,,,,,,,,,,SoundMST/Thunder_A.wav,2,3,NEW,D,,,2,1,0.25399,0,102,102,102,1,,,,,,,,,,,,,,,,,,,,,,,,
,,,,,,,,,,,,,,5e13a1381e2e589db94cd20b,58,2021-03-25_02h15.54.603,CombinedMST_OA,2020.2.10,MacIntel,60,,,,,,,,,,,,,,,,,,,,,,,,,,,,,,,,,,,,,,,,,,,,,,,,,,,,,,,,,,,,,,,,,,,,,,,,,,SoundMST/Faucet_C.wav,2,2,SIMILAR,D,,,1,0,1.08508,0,103,103,103,1,,,,,,,,,,,,,,,,,,,,,,,,
,,,,,,,,,,,,,,5e13a1381e2e589db94cd20b,58,2021-03-25_02h15.54.603,CombinedMST_OA,2020.2.10,MacIntel,60,,,,,,,,,,,,,,,,,,,,,,,,,,,,,,,,,,,,,,,,,,,,,,,,,,,,,,,,,,,,,,,,,,,,,,,,,,SoundMST/Elephant_C.wav,2,3,NEW,D,,,2,1,0.684655,0,104,104,104,1,,,,,,,,,,,,,,,,,,,,,,,,
,,,,,,,,,,,,,,5e13a1381e2e589db94cd20b,58,2021-03-25_02h15.54.603,CombinedMST_OA,2020.2.10,MacIntel,60,,,,,,,,,,,,,,,,,,,,,,,,,,,,,,,,,,,,,,,,,,,,,,,,,,,,,,,,,,,,,,,,,,,,,,,,,,SoundMST/Growl_H.wav,2,2,SIMILAR,D,,,1,0,0.769455,0,105,105,105,1,,,,,,,,,,,,,,,,,,,,,,,,
,,,,,,,,,,,,,,5e13a1381e2e589db94cd20b,58,2021-03-25_02h15.54.603,CombinedMST_OA,2020.2.10,MacIntel,60,,,,,,,,,,,,,,,,,,,,,,,,,,,,,,,,,,,,,,,,,,,,,,,,,,,,,,,,,,,,,,,,,,,,,,,,,,SoundMST/Heartbeat.wav,2,3,NEW,D,,,2,1,0.60353,0,106,106,106,1,,,,,,,,,,,,,,,,,,,,,,,,
,,,,,,,,,,,,,,5e13a1381e2e589db94cd20b,58,2021-03-25_02h15.54.603,CombinedMST_OA,2020.2.10,MacIntel,60,,,,,,,,,,,,,,,,,,,,,,,,,,,,,,,,,,,,,,,,,,,,,,,,,,,,,,,,,,,,,,,,,,,,,,,,,,SoundMST/Baby_E.wav,2,2,SIMILAR,D,,,1,0,1.114895,0,107,107,107,1,,,,,,,,,,,,,,,,,,,,,,,,
,,,,,,,,,,,,,,5e13a1381e2e589db94cd20b,58,2021-03-25_02h15.54.603,CombinedMST_OA,2020.2.10,MacIntel,60,,,,,,,,,,,,,,,,,,,,,,,,,,,,,,,,,,,,,,,,,,,,,,,,,,,,,,,,,,,,,,,,,,,,,,,,,,SoundMST/Cough_C.wav,2,3,NEW,D,,,2,1,1.33525,0,108,108,108,1,,,,,,,,,,,,,,,,,,,,,,,,
,,,,,,,,,,,,,,5e13a1381e2e589db94cd20b,58,2021-03-25_02h15.54.603,CombinedMST_OA,2020.2.10,MacIntel,60,,,,,,,,,,,,,,,,,,,,,,,,,,,,,,,,,,,,,,,,,,,,,,,,,,,,,,,,,,,,,,,,,,,,,,,,,,SoundMST/HairDryer_A.wav,1,1,OLD,D,,,2,0,0.10054,0,109,109,109,1,,,,,,,,,,,,,,,,,,,,,,,,
,,,,,,,,,,,,,,5e13a1381e2e589db94cd20b,58,2021-03-25_02h15.54.603,CombinedMST_OA,2020.2.10,MacIntel,60,,,,,,,,,,,,,,,,,,,,,,,,,,,,,,,,,,,,,,,,,,,,,,,,,,,,,,,,,,,,,,,,,,,,,,,,,,SoundMST/Cello.wav,2,3,NEW,D,,,2,1,0.351045,0,110,110,110,1,,,,,,,,,,,,,,,,,,,,,,,,
,,,,,,,,,,,,,,5e13a1381e2e589db94cd20b,58,2021-03-25_02h15.54.603,CombinedMST_OA,2020.2.10,MacIntel,60,,,,,,,,,,,,,,,,,,,,,,,,,,,,,,,,,,,,,,,,,,,,,,,,,,,,,,,,,,,,,,,,,,,,,,,,,,SoundMST/Cuckoo_A.wav,1,1,OLD,D,,,2,0,1.106045,0,111,111,111,1,,,,,,,,,,,,,,,,,,,,,,,,
,,,,,,,,,,,,,,5e13a1381e2e589db94cd20b,58,2021-03-25_02h15.54.603,CombinedMST_OA,2020.2.10,MacIntel,60,,,,,,,,,,,,,,,,,,,,,,,,,,,,,,,,,,,,,,,,,,,,,,,,,,,,,,,,,,,,,,,,,,,,,,,,,,SoundMST/DialTone.wav,2,3,NEW,D,,,2,1,0.718635,0,112,112,112,1,,,,,,,,,,,,,,,,,,,,,,,,
,,,,,,,,,,,,,,5e13a1381e2e589db94cd20b,58,2021-03-25_02h15.54.603,CombinedMST_OA,2020.2.10,MacIntel,60,,,,,,,,,,,,,,,,,,,,,,,,,,,,,,,,,,,,,,,,,,,,,,,,,,,,,,,,,,,,,,,,,,,,,,,,,,SoundMST/Bird_A.wav,2,2,SIMILAR,D,,,1,0,0.7346,0,113,113,113,1,,,,,,,,,,,,,,,,,,,,,,,,
,,,,,,,,,,,,,,5e13a1381e2e589db94cd20b,58,2021-03-25_02h15.54.603,CombinedMST_OA,2020.2.10,MacIntel,60,,,,,,,,,,,,,,,,,,,,,,,,,,,,,,,,,,,,,,,,,,,,,,,,,,,,,,,,,,,,,,,,,,,,,,,,,,SoundMST/Toilet_B.wav,2,3,NEW,D,,,1,0,1.385235,0,114,114,114,1,,,,,,,,,,,,,,,,,,,,,,,,
,,,,,,,,,,,,,,5e13a1381e2e589db94cd20b,58,2021-03-25_02h15.54.603,CombinedMST_OA,2020.2.10,MacIntel,60,,,,,,,,,,,,,,,,,,,,,,,,,,,,,,,,,,,,,,,,,,,,,,,,,,,,,,,,,,,,,,,,,,,,,,,,,,SoundMST/Wind_B.wav,1,1,OLD,D,,,1,1,0.484425,0,115,115,115,1,,,,,,,,,,,,,,,,,,,,,,,,
,,,,,,,,,,,,,,5e13a1381e2e589db94cd20b,58,2021-03-25_02h15.54.603,CombinedMST_OA,2020.2.10,MacIntel,60,,,,,,,,,,,,,,,,,,,,,,,,,,,,,,,,,,,,,,,,,,,,,,,,,,,,,,,,,,,,,,,,,,,,,,,,,,SoundMST/Puff_A.wav,1,1,OLD,D,,,1,1,1.1051,0,116,116,116,1,,,,,,,,,,,,,,,,,,,,,,,,
,,,,,,,,,,,,,,5e13a1381e2e589db94cd20b,58,2021-03-25_02h15.54.603,CombinedMST_OA,2020.2.10,MacIntel,60,,,,,,,,,,,,,,,,,,,,,,,,,,,,,,,,,,,,,,,,,,,,,,,,,,,,,,,,,,,,,,,,,,,,,,,,,,SoundMST/Laugh_D.wav,2,2,SIMILAR,D,,,2,1,3.17043,0,117,117,117,1,,,,,,,,,,,,,,,,,,,,,,,,
,,,,,,,,,,,,,,5e13a1381e2e589db94cd20b,58,2021-03-25_02h15.54.603,CombinedMST_OA,2020.2.10,MacIntel,60,,,,,,,,,,,,,,,,,,,,,,,,,,,,,,,,,,,,,,,,,,,,,,,,,,,,,,,,,,,,,,,,,,,,,,,,,,SoundMST/Guitar_B.wav,1,1,OLD,D,,,1,1,1.251955,0,118,118,118,1,,,,,,,,,,,,,,,,,,,,,,,,
,,,,,,,,,,,,,,5e13a1381e2e589db94cd20b,58,2021-03-25_02h15.54.603,CombinedMST_OA,2020.2.10,MacIntel,60,,,,,,,,,,,,,,,,,,,,,,,,,,,,,,,,,,,,,,,,,,,,,,,,,,,,,,,,,,,,,,,,,,,,,,,,,,SoundMST/Chomp_C.wav,2,2,SIMILAR,D,,,1,0,4.65548,0,119,119,119,1,,,,,,,,,,,,,,,,,,,,,,,,
,,,,,,,,,,,,,,5e13a1381e2e589db94cd20b,58,2021-03-25_02h15.54.603,CombinedMST_OA,2020.2.10,MacIntel,60,,,,,,,,,,,,,,,,,,,,,,,,,,,,,,,,,,,,,,,,,,,,,,,,,,,,,,,,,,,,,,,,,,,,,,,,,,SoundMST/Heartbeat.wav,1,1,OLD,D,,,1,1,2.703475,0,120,120,120,1,,,,,,,,,,,,,,,,,,,,,,,,
,,,,,,,,,,,,,,5e13a1381e2e589db94cd20b,58,2021-03-25_02h15.54.603,CombinedMST_OA,2020.2.10,MacIntel,60,,,,,,,,,,,,,,,,,,,,,,,,,,,,,,,,,,,,,,,,,,,,,,,,,,,,,,,,,,,,,,,,,,,,,,,,,,SoundMST/Cello.wav,1,1,OLD,D,,,1,1,0.767895,0,121,121,121,1,,,,,,,,,,,,,,,,,,,,,,,,
,,,,,,,,,,,,,,5e13a1381e2e589db94cd20b,58,2021-03-25_02h15.54.603,CombinedMST_OA,2020.2.10,MacIntel,60,,,,,,,,,,,,,,,,,,,,,,,,,,,,,,,,,,,,,,,,,,,,,,,,,,,,,,,,,,,,,,,,,,,,,,,,,,SoundMST/Cough_E.wav,2,2,SIMILAR,D,,,2,1,3.387315,0,122,122,122,1,,,,,,,,,,,,,,,,,,,,,,,,
,,,,,,,,,,,,,,5e13a1381e2e589db94cd20b,58,2021-03-25_02h15.54.603,CombinedMST_OA,2020.2.10,MacIntel,60,,,,,,,,,,,,,,,,,,,,,,,,,,,,,,,,,,,,,,,,,,,,,,,,,,,,,,,,,,,,,,,,,,,,,,,,,,SoundMST/Chicken_A.wav,1,1,OLD,D,,,1,1,1.402195,0,123,123,123,1,,,,,,,,,,,,,,,,,,,,,,,,
,,,,,,,,,,,,,,5e13a1381e2e589db94cd20b,58,2021-03-25_02h15.54.603,CombinedMST_OA,2020.2.10,MacIntel,60,,,,,,,,,,,,,,,,,,,,,,,,,,,,,,,,,,,,,,,,,,,,,,,,,,,,,,,,,,,,,,,,,,,,,,,,,,SoundMST/Thunder_A.wav,1,1,OLD,D,,,2,0,12.63384,0,124,124,124,1,,,,,,,,,,,,,,,,,,,,,,,,
,,,,,,,,,,,,,,5e13a1381e2e589db94cd20b,58,2021-03-25_02h15.54.603,CombinedMST_OA,2020.2.10,MacIntel,60,,,,,,,,,,,,,,,,,,,,,,,,,,,,,,,,,,,,,,,,,,,,,,,,,,,,,,,,,,,,,,,,,,,,,,,,,,SoundMST/DialTone.wav,1,1,OLD,D,,,1,1,3.5711,0,125,125,125,1,,,,,,,,,,,,,,,,,,,,,,,,
,,,,,,,,,,,,,,5e13a1381e2e589db94cd20b,58,2021-03-25_02h15.54.603,CombinedMST_OA,2020.2.10,MacIntel,60,,,,,,,,,,,,,,,,,,,,,,,,,,,,,,,,,,,,,,,,,,,,,,,,,,,,,,,,,,,,,,,,,,,,,,,,,,SoundMST/Elephant_A.wav,2,2,SIMILAR,D,,,1,0,0.15047,0,126,126,126,1,,,,,,,,,,,,,,,,,,,,,,,,
,,,,,,,,,,,,,,5e13a1381e2e589db94cd20b,58,2021-03-25_02h15.54.603,CombinedMST_OA,2020.2.10,MacIntel,60,,,,,,,,,,,,,,,,,,,,,,,,,,,,,,,,,,,,,,,,,,,,,,,,,,,,,,,,,,,,,,,,,,,,,,,,,,SoundMST/Toilet_B.wav,1,1,OLD,D,,,1,1,0.621475,0,127,127,127,1,,,,,,,,,,,,,,,,,,,,,,,,
,,,,,,,,,,,,,,5e13a1381e2e589db94cd20b,58,2021-03-25_02h15.54.603,CombinedMST_OA,2020.2.10,MacIntel,60,,,,,,,,,,,,,,,,,,,,,,,,,,,,,,,,,,,,,,,,,,,,,,,,,,,,,,,,,,,,,,,,,,,,,,,,,,,,,,,,,,,,,,,,,return,12.579935,Tagine,0,0,0,0,1,,,,,,,,,,,,,,,,
,,,,,,,,,,,,,,5e13a1381e2e589db94cd20b,58,2021-03-25_02h15.54.603,CombinedMST_OA,2020.2.10,MacIntel,60,,,,,,,,,,,,,,,,,,,,,,,,,,,,,,,,,,,,,,,,,,,,,,,,,,,,,,,0,1,1,1,1,0,1,,,,,,,,,,,,,,,,,,,,,,,,,,,,,,,,,,,,,,,,,,,,,,,,,,,
,,,,,,,,,,,,,,5e13a1381e2e589db94cd20b,58,2021-03-25_02h15.54.603,CombinedMST_OA,2020.2.10,MacIntel,60,,,,,,,,,,,,,,,,,,,,,,,,,,,,,,,,,,,,,,,,,,,,,,,,,,,,,,,,,,,,,,,,,,,,,,,,,,,,,,,,,,,,,,,,,,,,,,,,,space,672.475585,space,34.75451,return,19.97102,storm,0,0,0,78,1,SoundMST/Fireworks.wav,SAME,,
,,,,,,,,,,,,,,5e13a1381e2e589db94cd20b,58,2021-03-25_02h15.54.603,CombinedMST_OA,2020.2.10,MacIntel,60,,,,,,,,,,,,,,,,,,,,,,,,,,,,,,,,,,,,,,,,,,,,,,,,,,,,,,,,,,,,,,,,,,,,,,,,,,,,,,,,,,,,,,,,,,,,,,,,,,,,,return,15.17184, siren,0,1,1,14,1,SoundMST/Siren_A.wav,SIMILAR,,
,,,,,,,,,,,,,,5e13a1381e2e589db94cd20b,58,2021-03-25_02h15.54.603,CombinedMST_OA,2020.2.10,MacIntel,60,,,,,,,,,,,,,,,,,,,,,,,,,,,,,,,,,,,,,,,,,,,,,,,,,,,,,,,,,,,,,,,,,,,,,,,,,,,,,,,,,,,,,,,,,,,,,,,,,,,,,return,14.549655, Camera shutter,0,2,2,84,1,SoundMST/Camera.wav,SAME,,
,,,,,,,,,,,,,,5e13a1381e2e589db94cd20b,58,2021-03-25_02h15.54.603,CombinedMST_OA,2020.2.10,MacIntel,60,,,,,,,,,,,,,,,,,,,,,,,,,,,,,,,,,,,,,,,,,,,,,,,,,,,,,,,,,,,,,,,,,,,,,,,,,,,,,,,,,,,,,,,,,,,,,,,,,,,,,return,7.741575, whistle,0,3,3,11,1,SoundMST/Whistle_C.wav,SIMILAR,,
,,,,,,,,,,,,,,5e13a1381e2e589db94cd20b,58,2021-03-25_02h15.54.603,CombinedMST_OA,2020.2.10,MacIntel,60,,,,,,,,,,,,,,,,,,,,,,,,,,,,,,,,,,,,,,,,,,,,,,,,,,,,,,,,,,,,,,,,,,,,,,,,,,,,,,,,,,,,,,,,,,,,,,,,,,,,,return,21.45723, water poured into glass,0,4,4,1,1,SoundMST/Pour_C.wav,SIMILAR,,
,,,,,,,,,,,,,,5e13a1381e2e589db94cd20b,58,2021-03-25_02h15.54.603,CombinedMST_OA,2020.2.10,MacIntel,60,,,,,,,,,,,,,,,,,,,,,,,,,,,,,,,,,,,,,,,,,,,,,,,,,,,,,,,,,,,,,,,,,,,,,,,,,,,,,,,,,,,,,,,,,,,,,,,,,,,,,return,27.414155, coins scraping accross wood surface,0,5,5,42,1,SoundMST/Coin_D.wav,SIMILAR,,
,,,,,,,,,,,,,,5e13a1381e2e589db94cd20b,58,2021-03-25_02h15.54.603,CombinedMST_OA,2020.2.10,MacIntel,60,,,,,,,,,,,,,,,,,,,,,,,,,,,,,,,,,,,,,,,,,,,,,,,,,,,,,,,,,,,,,,,,,,,,,,,,,,,,,,,,,,,,,,,,,,,,,,,,,,,,,return,14.93377, bird song,0,6,6,7,1,SoundMST/Bird_A.wav,SIMILAR,,
,,,,,,,,,,,,,,5e13a1381e2e589db94cd20b,58,2021-03-25_02h15.54.603,CombinedMST_OA,2020.2.10,MacIntel,60,,,,,,,,,,,,,,,,,,,,,,,,,,,,,,,,,,,,,,,,,,,,,,,,,,,,,,,,,,,,,,,,,,,,,,,,,,,,,,,,,,,,,,,,,,,,,,,,,,,,,return,58.120365, air being squezed from object,0,7,7,58,1,SoundMST/Puff_A.wav,SAME,,
,,,,,,,,,,,,,,5e13a1381e2e589db94cd20b,58,2021-03-25_02h15.54.603,CombinedMST_OA,2020.2.10,MacIntel,60,,,,,,,,,,,,,,,,,,,,,,,,,,,,,,,,,,,,,,,,,,,,,,,,,,,,,,,,,,,,,,,,,,,,,,,,,,,,,,,,,,,,,,,,,,,,,,,,,,,,,return,19.007765, chewing food,0,8,8,12,1,SoundMST/Chomp_C.wav,SIMILAR,,
,,,,,,,,,,,,,,5e13a1381e2e589db94cd20b,58,2021-03-25_02h15.54.603,CombinedMST_OA,2020.2.10,MacIntel,60,,,,,,,,,,,,,,,,,,,,,,,,,,,,,,,,,,,,,,,,,,,,,,,,,,,,,,,,,,,,,,,,,,,,,,,,,,,,,,,,,,,,,,,,,,,,,,,,,,,,,return,39.527985, baby vocal,0,9,9,4,1,SoundMST/Baby_E.wav,SIMILAR,,
,,,,,,,,,,,,,,5e13a1381e2e589db94cd20b,58,2021-03-25_02h15.54.603,CombinedMST_OA,2020.2.10,MacIntel,60,,,,,,,,,,,,,,,,,,,,,,,,,,,,,,,,,,,,,,,,,,,,,,,,,,,,,,,,,,,,,,,,,,,,,,,,,,,,,,,,,,,,,,,,,,,,,,,,,,,,,return,21.574425, stings of guitar strummed,0,10,10,59,1,SoundMST/Guitar_B.wav,SAME,,
,,,,,,,,,,,,,,5e13a1381e2e589db94cd20b,58,2021-03-25_02h15.54.603,CombinedMST_OA,2020.2.10,MacIntel,60,,,,,,,,,,,,,,,,,,,,,,,,,,,,,,,,,,,,,,,,,,,,,,,,,,,,,,,,,,,,,,,,,,,,,,,,,,,,,,,,,,,,,,,,,,,,,,,,,,,,,return,22.591845, gaseous drink poured into glass,0,11,11,25,1,SoundMST/Pour_B.wav,SIMILAR,,
,,,,,,,,,,,,,,5e13a1381e2e589db94cd20b,58,2021-03-25_02h15.54.603,CombinedMST_OA,2020.2.10,MacIntel,60,,,,,,,,,,,,,,,,,,,,,,,,,,,,,,,,,,,,,,,,,,,,,,,,,,,,,,,,,,,,,,,,,,,,,,,,,,,,,,,,,,,,,,,,,,,,,,,,,,,,,return,13.953725, church bell,0,12,12,2,1,SoundMST/Chime_A.wav,SIMILAR,,
,,,,,,,,,,,,,,5e13a1381e2e589db94cd20b,58,2021-03-25_02h15.54.603,CombinedMST_OA,2020.2.10,MacIntel,60,,,,,,,,,,,,,,,,,,,,,,,,,,,,,,,,,,,,,,,,,,,,,,,,,,,,,,,,,,,,,,,,,,,,,,,,,,,,,,,,,,,,,,,,,,,,,,,,,,,,,return,22.95906, paper tear,0,13,13,81,1,SoundMST/PaperRip.wav,SAME,,
,,,,,,,,,,,,,,5e13a1381e2e589db94cd20b,58,2021-03-25_02h15.54.603,CombinedMST_OA,2020.2.10,MacIntel,60,,,,,,,,,,,,,,,,,,,,,,,,,,,,,,,,,,,,,,,,,,,,,,,,,,,,,,,,,,,,,,,,,,,,,,,,,,,,,,,,,,,,,,,,,,,,,,,,,,,,,return,17.57056, man whistling,0,14,14,67,1,SoundMST/ManWhistle.wav,SAME,,
,,,,,,,,,,,,,,5e13a1381e2e589db94cd20b,58,2021-03-25_02h15.54.603,CombinedMST_OA,2020.2.10,MacIntel,60,,,,,,,,,,,,,,,,,,,,,,,,,,,,,,,,,,,,,,,,,,,,,,,,,,,,,,,,,,,,,,,,,,,,,,,,,,,,,,,,,,,,,,,,,,,,,,,,,,,,,return,19.538545, howling wind,0,15,15,55,1,SoundMST/Wind_B.wav,SAME,,
,,,,,,,,,,,,,,5e13a1381e2e589db94cd20b,58,2021-03-25_02h15.54.603,CombinedMST_OA,2020.2.10,MacIntel,60,,,,,,,,,,,,,,,,,,,,,,,,,,,,,,,,,,,,,,,,,,,,,,,,,,,,,,,,,,,,,,,,,,,,,,,,,,,,,,,,,,,,,,,,,,,,,,,,,,,,,return,16.985685, person sipping drink,0,16,16,66,1,SoundMST/Slurp.wav,SAME,,
,,,,,,,,,,,,,,5e13a1381e2e589db94cd20b,58,2021-03-25_02h15.54.603,CombinedMST_OA,2020.2.10,MacIntel,60,,,,,,,,,,,,,,,,,,,,,,,,,,,,,,,,,,,,,,,,,,,,,,,,,,,,,,,,,,,,,,,,,,,,,,,,,,,,,,,,,,,,,,,,,,,,,,,,,,,,,return,9.830265, people clapping,0,17,17,47,1,SoundMST/Clap_B.wav,SIMILAR,,
,,,,,,,,,,,,,,5e13a1381e2e589db94cd20b,58,2021-03-25_02h15.54.603,CombinedMST_OA,2020.2.10,MacIntel,60,,,,,,,,,,,,,,,,,,,,,,,,,,,,,,,,,,,,,,,,,,,,,,,,,,,,,,,,,,,,,,,,,,,,,,,,,,,,,,,,,,,,,,,,,,,,,,,,,,,,,return,27.21362, bowling alley strike,0,18,18,72,1,SoundMST/Bowlingpins.wav,SAME,,
,,,,,,,,,,,,,,5e13a1381e2e589db94cd20b,58,2021-03-25_02h15.54.603,CombinedMST_OA,2020.2.10,MacIntel,60,,,,,,,,,,,,,,,,,,,,,,,,,,,,,,,,,,,,,,,,,,,,,,,,,,,,,,,,,,,,,,,,,,,,,,,,,,,,,,,,,,,,,,,,,,,,,,,,,,,,,return,48.07702, constant pitch electronic sound,0,19,19,54,1,SoundMST/DialTone.wav,SAME,,
,,,,,,,,,,,,,,5e13a1381e2e589db94cd20b,58,2021-03-25_02h15.54.603,CombinedMST_OA,2020.2.10,MacIntel,60,,,,,,,,,,,,,,,,,,,,,,,,,,,,,,,,,,,,,,,,,,,,,,,,,,,,,,,,,,,,,,,,,,,,,,,,,,,,,,,,,,,,,,,,,,,,,,,,,,,,,return,7.99246, man coughing,0,20,20,6,1,SoundMST/Cough_F.wav,SIMILAR,,
,,,,,,,,,,,,,,5e13a1381e2e589db94cd20b,58,2021-03-25_02h15.54.603,CombinedMST_OA,2020.2.10,MacIntel,60,,,,,,,,,,,,,,,,,,,,,,,,,,,,,,,,,,,,,,,,,,,,,,,,,,,,,,,,,,,,,,,,,,,,,,,,,,,,,,,,,,,,,,,,,,,,,,,,,,,,,return,17.92012, tambourine shaking,0,21,21,50,1,SoundMST/Sleighbells_B.wav,SAME,,
,,,,,,,,,,,,,,5e13a1381e2e589db94cd20b,58,2021-03-25_02h15.54.603,CombinedMST_OA,2020.2.10,MacIntel,60,,,,,,,,,,,,,,,,,,,,,,,,,,,,,,,,,,,,,,,,,,,,,,,,,,,,,,,,,,,,,,,,,,,,,,,,,,,,,,,,,,,,,,,,,,,,,,,,,,,,,return,14.566445, electric hairdryer,0,22,22,74,1,SoundMST/HairDryer_A.wav,SAME,,
,,,,,,,,,,,,,,5e13a1381e2e589db94cd20b,58,2021-03-25_02h15.54.603,CombinedMST_OA,2020.2.10,MacIntel,60,,,,,,,,,,,,,,,,,,,,,,,,,,,,,,,,,,,,,,,,,,,,,,,,,,,,,,,,,,,,,,,,,,,,,,,,,,,,,,,,,,,,,,,,,,,,,,,,,,,,,return,23.075995, howling wolf or dog,0,23,23,80,1,SoundMST/Howl.wav,SAME,,
,,,,,,,,,,,,,,5e13a1381e2e589db94cd20b,58,2021-03-25_02h15.54.603,CombinedMST_OA,2020.2.10,MacIntel,60,,,,,,,,,,,,,,,,,,,,,,,,,,,,,,,,,,,,,,,,,,,,,,,,,,,,,,,,,,,,,,,,,,,,,,,,,,,,,,,,,,,,,,,,,,,,,,,,,,,,,return,11.295995, bleating lamb,0,24,24,44,1,SoundMST/Goat_B.wav,SIMILAR,,
,,,,,,,,,,,,,,5e13a1381e2e589db94cd20b,58,2021-03-25_02h15.54.603,CombinedMST_OA,2020.2.10,MacIntel,60,,,,,,,,,,,,,,,,,,,,,,,,,,,,,,,,,,,,,,,,,,,,,,,,,,,,,,,,,,,,,,,,,,,,,,,,,,,,,,,,,,,,,,,,,,,,,,,,,,,,,return,13.482005, several people laughing,0,25,25,9,1,SoundMST/Laugh_D.wav,SIMILAR,,
,,,,,,,,,,,,,,5e13a1381e2e589db94cd20b,58,2021-03-25_02h15.54.603,CombinedMST_OA,2020.2.10,MacIntel,60,,,,,,,,,,,,,,,,,,,,,,,,,,,,,,,,,,,,,,,,,,,,,,,,,,,,,,,,,,,,,,,,,,,,,,,,,,,,,,,,,,,,,,,,,,,,,,,,,,,,,return,16.268305, bugle being played,0,26,26,63,1,SoundMST/Trumpet_B.wav,SAME,,
,,,,,,,,,,,,,,5e13a1381e2e589db94cd20b,58,2021-03-25_02h15.54.603,CombinedMST_OA,2020.2.10,MacIntel,60,,,,,,,,,,,,,,,,,,,,,,,,,,,,,,,,,,,,,,,,,,,,,,,,,,,,,,,,,,,,,,,,,,,,,,,,,,,,,,,,,,,,,,,,,,,,,,,,,,,,,return,53.743055,telephone bell ringing,0,27,27,37,1,SoundMST/Phone_D.wav,SIMILAR,,
,,,,,,,,,,,,,,5e13a1381e2e589db94cd20b,58,2021-03-25_02h15.54.603,CombinedMST_OA,2020.2.10,MacIntel,60,,,,,,,,,,,,,,,,,,,,,,,,,,,,,,,,,,,,,,,,,,,,,,,,,,,,,,,,,,,,,,,,,,,,,,,,,,,,,,,,,,,,,,,,,,,,,,,,,,,,,return,40.094985, water from tap flowing into recepticle,0,28,28,29,1,SoundMST/Faucet_A.wav,SIMILAR,,
,,,,,,,,,,,,,,5e13a1381e2e589db94cd20b,58,2021-03-25_02h15.54.603,CombinedMST_OA,2020.2.10,MacIntel,60,,,,,,,,,,,,,,,,,,,,,,,,,,,,,,,,,,,,,,,,,,,,,,,,,,,,,,,,,,,,,,,,,,,,,,,,,,,,,,,,,,,,,,,,,,,,,,,,,,,,,return,15.14005, propeller plane,0,29,29,62,1,SoundMST/Airplane_B.wav,SAME,,
,,,,,,,,,,,,,,5e13a1381e2e589db94cd20b,58,2021-03-25_02h15.54.603,CombinedMST_OA,2020.2.10,MacIntel,60,,,,,,,,,,,,,,,,,,,,,,,,,,,,,,,,,,,,,,,,,,,,,,,,,,,,,,,,,,,,,,,,,,,,,,,,,,,,,,,,,,,,,,,,,,,,,,,,,,,,,return,7.64101, siren,0,30,30,38,1,SoundMST/Siren_E.wav,SIMILAR,,
,,,,,,,,,,,,,,5e13a1381e2e589db94cd20b,58,2021-03-25_02h15.54.603,CombinedMST_OA,2020.2.10,MacIntel,60,,,,,,,,,,,,,,,,,,,,,,,,,,,,,,,,,,,,,,,,,,,,,,,,,,,,,,,,,,,,,,,,,,,,,,,,,,,,,,,,,,,,,,,,,,,,,,,,,,,,,return,16.51851, cat meouwing,0,31,31,65,1,SoundMST/Cat_A.wav,SAME,,
,,,,,,,,,,,,,,5e13a1381e2e589db94cd20b,58,2021-03-25_02h15.54.603,CombinedMST_OA,2020.2.10,MacIntel,60,,,,,,,,,,,,,,,,,,,,,,,,,,,,,,,,,,,,,,,,,,,,,,,,,,,,,,,,,,,,,,,,,,,,,,,,,,,,,,,,,,,,,,,,,,,,,,,,,,,,,return,8.826475, lamb bleating,0,32,32,20,1,SoundMST/Goat_C.wav,SIMILAR,,
,,,,,,,,,,,,,,5e13a1381e2e589db94cd20b,58,2021-03-25_02h15.54.603,CombinedMST_OA,2020.2.10,MacIntel,60,,,,,,,,,,,,,,,,,,,,,,,,,,,,,,,,,,,,,,,,,,,,,,,,,,,,,,,,,,,,,,,,,,,,,,,,,,,,,,,,,,,,,,,,,,,,,,,,,,,,,return,14.68949, Elephant roaring,0,33,33,24,1,SoundMST/Elephant_C.wav,SIMILAR,,
,,,,,,,,,,,,,,5e13a1381e2e589db94cd20b,58,2021-03-25_02h15.54.603,CombinedMST_OA,2020.2.10,MacIntel,60,,,,,,,,,,,,,,,,,,,,,,,,,,,,,,,,,,,,,,,,,,,,,,,,,,,,,,,,,,,,,,,,,,,,,,,,,,,,,,,,,,,,,,,,,,,,,,,,,,,,,return,46.201565, goose quaking,0,34,34,8,1,SoundMST/Duck_D.wav,SIMILAR,,
,,,,,,,,,,,,,,5e13a1381e2e589db94cd20b,58,2021-03-25_02h15.54.603,CombinedMST_OA,2020.2.10,MacIntel,60,,,,,,,,,,,,,,,,,,,,,,,,,,,,,,,,,,,,,,,,,,,,,,,,,,,,,,,,,,,,,,,,,,,,,,,,,,,,,,,,,,,,,,,,,,,,,,,,,,,,,return,10.001385, elephant roaring,0,35,35,0,1,SoundMST/Elephant_A.wav,SIMILAR,,
,,,,,,,,,,,,,,5e13a1381e2e589db94cd20b,58,2021-03-25_02h15.54.603,CombinedMST_OA,2020.2.10,MacIntel,60,,,,,,,,,,,,,,,,,,,,,,,,,,,,,,,,,,,,,,,,,,,,,,,,,,,,,,,,,,,,,,,,,,,,,,,,,,,,,,,,,,,,,,,,,,,,,,,,,,,,,return,17.693035, helicoptor rotors in motion,0,36,36,79,1,SoundMST/Helicopter_A.wav,SAME,,
,,,,,,,,,,,,,,5e13a1381e2e589db94cd20b,58,2021-03-25_02h15.54.603,CombinedMST_OA,2020.2.10,MacIntel,60,,,,,,,,,,,,,,,,,,,,,,,,,,,,,,,,,,,,,,,,,,,,,,,,,,,,,,,,,,,,,,,,,,,,,,,,,,,,,,,,,,,,,,,,,,,,,,,,,,,,,return,10.96496, person sneezing,0,37,37,64,1,SoundMST/Sneeze_B.wav,SAME,,
,,,,,,,,,,,,,,5e13a1381e2e589db94cd20b,58,2021-03-25_02h15.54.603,CombinedMST_OA,2020.2.10,MacIntel,60,,,,,,,,,,,,,,,,,,,,,,,,,,,,,,,,,,,,,,,,,,,,,,,,,,,,,,,,,,,,,,,,,,,,,,,,,,,,,,,,,,,,,,,,,,,,,,,,,,,,,return,23.39224, combustion engine starting,0,38,38,46,1,SoundMST/CarStart_E.wav,SIMILAR,,
,,,,,,,,,,,,,,5e13a1381e2e589db94cd20b,58,2021-03-25_02h15.54.603,CombinedMST_OA,2020.2.10,MacIntel,60,,,,,,,,,,,,,,,,,,,,,,,,,,,,,,,,,,,,,,,,,,,,,,,,,,,,,,,,,,,,,,,,,,,,,,,,,,,,,,,,,,,,,,,,,,,,,,,,,,,,,return,8.82641, person coughing,0,39,39,30,1,SoundMST/Cough_D.wav,SIMILAR,,
,,,,,,,,,,,,,,5e13a1381e2e589db94cd20b,58,2021-03-25_02h15.54.603,CombinedMST_OA,2020.2.10,MacIntel,60,,,,,,,,,,,,,,,,,,,,,,,,,,,,,,,,,,,,,,,,,,,,,,,,,,,,,,,,,,,,,,,,,,,,,,,,,,,,,,,,,,,,,,,,,,,,,,,,,,,,,return,36.140455, wild big cat growling,0,40,40,19,1,SoundMST/Growl_H.wav,SIMILAR,,
,,,,,,,,,,,,,,5e13a1381e2e589db94cd20b,58,2021-03-25_02h15.54.603,CombinedMST_OA,2020.2.10,MacIntel,60,,,,,,,,,,,,,,,,,,,,,,,,,,,,,,,,,,,,,,,,,,,,,,,,,,,,,,,,,,,,,,,,,,,,,,,,,,,,,,,,,,,,,,,,,,,,,,,,,,,,,return,15.190575, mobile phone vibrating,0,41,41,52,1,SoundMST/Buzz.wav,SAME,,
,,,,,,,,,,,,,,5e13a1381e2e589db94cd20b,58,2021-03-25_02h15.54.603,CombinedMST_OA,2020.2.10,MacIntel,60,,,,,,,,,,,,,,,,,,,,,,,,,,,,,,,,,,,,,,,,,,,,,,,,,,,,,,,,,,,,,,,,,,,,,,,,,,,,,,,,,,,,,,,,,,,,,,,,,,,,,return,24.927215, frog vocalising,0,42,42,73,1,SoundMST/Bullfrog.wav,SAME,,
,,,,,,,,,,,,,,5e13a1381e2e589db94cd20b,58,2021-03-25_02h15.54.603,CombinedMST_OA,2020.2.10,MacIntel,60,,,,,,,,,,,,,,,,,,,,,,,,,,,,,,,,,,,,,,,,,,,,,,,,,,,,,,,,,,,,,,,,,,,,,,,,,,,,,,,,,,,,,,,,,,,,,,,,,,,,,return,13.965395, crow cawing,0,43,43,15,1,SoundMST/Crow_A.wav,SIMILAR,,
,,,,,,,,,,,,,,5e13a1381e2e589db94cd20b,58,2021-03-25_02h15.54.603,CombinedMST_OA,2020.2.10,MacIntel,60,,,,,,,,,,,,,,,,,,,,,,,,,,,,,,,,,,,,,,,,,,,,,,,,,,,,,,,,,,,,,,,,,,,,,,,,,,,,,,,,,,,,,,,,,,,,,,,,,,,,,return,45.584285, glass bottle placed on hard surface,0,44,44,68,1,SoundMST/Cup.wav,SAME,,
,,,,,,,,,,,,,,5e13a1381e2e589db94cd20b,58,2021-03-25_02h15.54.603,CombinedMST_OA,2020.2.10,MacIntel,60,,,,,,,,,,,,,,,,,,,,,,,,,,,,,,,,,,,,,,,,,,,,,,,,,,,,,,,,,,,,,,,,,,,,,,,,,,,,,,,,,,,,,,,,,,,,,,,,,,,,,return,15.400705, person walking on wood floor,0,45,45,16,1,SoundMST/Footsteps_F.wav,SIMILAR,,
,,,,,,,,,,,,,,5e13a1381e2e589db94cd20b,58,2021-03-25_02h15.54.603,CombinedMST_OA,2020.2.10,MacIntel,60,,,,,,,,,,,,,,,,,,,,,,,,,,,,,,,,,,,,,,,,,,,,,,,,,,,,,,,,,,,,,,,,,,,,,,,,,,,,,,,,,,,,,,,,,,,,,,,,,,,,,return,8.308735, cow mooing,0,46,46,71,1,SoundMST/Cow.wav,SAME,,
,,,,,,,,,,,,,,5e13a1381e2e589db94cd20b,58,2021-03-25_02h15.54.603,CombinedMST_OA,2020.2.10,MacIntel,60,,,,,,,,,,,,,,,,,,,,,,,,,,,,,,,,,,,,,,,,,,,,,,,,,,,,,,,,,,,,,,,,,,,,,,,,,,,,,,,,,,,,,,,,,,,,,,,,,,,,,return,7.881365, bagpipes,0,47,47,69,1,SoundMST/Bagpipe.wav,SAME,,
,,,,,,,,,,,,,,5e13a1381e2e589db94cd20b,58,2021-03-25_02h15.54.603,CombinedMST_OA,2020.2.10,MacIntel,60,,,,,,,,,,,,,,,,,,,,,,,,,,,,,,,,,,,,,,,,,,,,,,,,,,,,,,,,,,,,,,,,,,,,,,,,,,,,,,,,,,,,,,,,,,,,,,,,,,,,,return,15.351995, church bell ringing,0,48,48,26,1,SoundMST/Chime_B.wav,SIMILAR,,
,,,,,,,,,,,,,,5e13a1381e2e589db94cd20b,58,2021-03-25_02h15.54.603,CombinedMST_OA,2020.2.10,MacIntel,60,,,,,,,,,,,,,,,,,,,,,,,,,,,,,,,,,,,,,,,,,,,,,,,,,,,,,,,,,,,,,,,,,,,,,,,,,,,,,,,,,,,,,,,,,,,,,,,,,,,,,return,41.696605, water gurgling,0,49,49,45,1,SoundMST/Bubbles_A.wav,SIMILAR,,
,,,,,,,,,,,,,,5e13a1381e2e589db94cd20b,58,2021-03-25_02h15.54.603,CombinedMST_OA,2020.2.10,MacIntel,60,,,,,,,,,,,,,,,,,,,,,,,,,,,,,,,,,,,,,,,,,,,,,,,,,,,,,,,,,,,,,,,,,,,,,,,,,,,,,,,,,,,,,,,,,,,,,,,,,,,,,return,15.367805, liquid dripping,0,50,50,85,1,SoundMST/Droplet_B.wav,SAME,,
,,,,,,,,,,,,,,5e13a1381e2e589db94cd20b,58,2021-03-25_02h15.54.603,CombinedMST_OA,2020.2.10,MacIntel,60,,,,,,,,,,,,,,,,,,,,,,,,,,,,,,,,,,,,,,,,,,,,,,,,,,,,,,,,,,,,,,,,,,,,,,,,,,,,,,,,,,,,,,,,,,,,,,,,,,,,,return,11.98029, horse neighing,0,51,51,82,1,SoundMST/Horse.wav,SAME,,
,,,,,,,,,,,,,,5e13a1381e2e589db94cd20b,58,2021-03-25_02h15.54.603,CombinedMST_OA,2020.2.10,MacIntel,60,,,,,,,,,,,,,,,,,,,,,,,,,,,,,,,,,,,,,,,,,,,,,,,,,,,,,,,,,,,,,,,,,,,,,,,,,,,,,,,,,,,,,,,,,,,,,,,,,,,,,return,9.276885, Thunder,0,52,52,48,1,SoundMST/Thunder_A.wav,SAME,,
,,,,,,,,,,,,,,5e13a1381e2e589db94cd20b,58,2021-03-25_02h15.54.603,CombinedMST_OA,2020.2.10,MacIntel,60,,,,,,,,,,,,,,,,,,,,,,,,,,,,,,,,,,,,,,,,,,,,,,,,,,,,,,,,,,,,,,,,,,,,,,,,,,,,,,,,,,,,,,,,,,,,,,,,,,,,,return,57.83585, Electric printer advancing,0,53,53,83,1,SoundMST/Printer.wav,SAME,,
,,,,,,,,,,,,,,5e13a1381e2e589db94cd20b,58,2021-03-25_02h15.54.603,CombinedMST_OA,2020.2.10,MacIntel,60,,,,,,,,,,,,,,,,,,,,,,,,,,,,,,,,,,,,,,,,,,,,,,,,,,,,,,,,,,,,,,,,,,,,,,,,,,,,,,,,,,,,,,,,,,,,,,,,,,,,,return,7.463245, dog bark,0,54,54,17,1,SoundMST/Dog_F.wav,SIMILAR,,
,,,,,,,,,,,,,,5e13a1381e2e589db94cd20b,58,2021-03-25_02h15.54.603,CombinedMST_OA,2020.2.10,MacIntel,60,,,,,,,,,,,,,,,,,,,,,,,,,,,,,,,,,,,,,,,,,,,,,,,,,,,,,,,,,,,,,,,,,,,,,,,,,,,,,,,,,,,,,,,,,,,,,,,,,,,,,return,12.066415, piano music,0,55,55,77,1,SoundMST/Piano_D.wav,SAME,,
,,,,,,,,,,,,,,5e13a1381e2e589db94cd20b,58,2021-03-25_02h15.54.603,CombinedMST_OA,2020.2.10,MacIntel,60,,,,,,,,,,,,,,,,,,,,,,,,,,,,,,,,,,,,,,,,,,,,,,,,,,,,,,,,,,,,,,,,,,,,,,,,,,,,,,,,,,,,,,,,,,,,,,,,,,,,,return,15.168645, snoring,0,56,56,34,1,SoundMST/Snore_D.wav,SIMILAR,,
,,,,,,,,,,,,,,5e13a1381e2e589db94cd20b,58,2021-03-25_02h15.54.603,CombinedMST_OA,2020.2.10,MacIntel,60,,,,,,,,,,,,,,,,,,,,,,,,,,,,,,,,,,,,,,,,,,,,,,,,,,,,,,,,,,,,,,,,,,,,,,,,,,,,,,,,,,,,,,,,,,,,,,,,,,,,,return,11.780525, chicken clucking,0,57,57,60,1,SoundMST/Chicken_A.wav,SAME,,
,,,,,,,,,,,,,,5e13a1381e2e589db94cd20b,58,2021-03-25_02h15.54.603,CombinedMST_OA,2020.2.10,MacIntel,60,,,,,,,,,,,,,,,,,,,,,,,,,,,,,,,,,,,,,,,,,,,,,,,,,,,,,,,,,,,,,,,,,,,,,,,,,,,,,,,,,,,,,,,,,,,,,,,,,,,,,return,32.50455, happy baby vocalising,0,58,58,28,1,SoundMST/Baby_F.wav,SIMILAR,,
,,,,,,,,,,,,,,5e13a1381e2e589db94cd20b,58,2021-03-25_02h15.54.603,CombinedMST_OA,2020.2.10,MacIntel,60,,,,,,,,,,,,,,,,,,,,,,,,,,,,,,,,,,,,,,,,,,,,,,,,,,,,,,,,,,,,,,,,,,,,,,,,,,,,,,,,,,,,,,,,,,,,,,,,,,,,,return,7.5961, cello music,0,59,59,61,1,SoundMST/Cello.wav,SAME,,
,,,,,,,,,,,,,,5e13a1381e2e589db94cd20b,58,2021-03-25_02h15.54.603,CombinedMST_OA,2020.2.10,MacIntel,60,,,,,,,,,,,,,,,,,,,,,,,,,,,,,,,,,,,,,,,,,,,,,,,,,,,,,,,,,,,,,,,,,,,,,,,,,,,,,,,,,,,,,,,,,,,,,,,,,,,,,return,24.076975, water being flushed,0,60,60,51,1,SoundMST/Toilet_B.wav,SAME,,
,,,,,,,,,,,,,,5e13a1381e2e589db94cd20b,58,2021-03-25_02h15.54.603,CombinedMST_OA,2020.2.10,MacIntel,60,,,,,,,,,,,,,,,,,,,,,,,,,,,,,,,,,,,,,,,,,,,,,,,,,,,,,,,,,,,,,,,,,,,,,,,,,,,,,,,,,,,,,,,,,,,,,,,,,,,,,return,12.01973, donkey eeyawing,0,61,61,87,1,SoundMST/Donkey.wav,SAME,,
,,,,,,,,,,,,,,5e13a1381e2e589db94cd20b,58,2021-03-25_02h15.54.603,CombinedMST_OA,2020.2.10,MacIntel,60,,,,,,,,,,,,,,,,,,,,,,,,,,,,,,,,,,,,,,,,,,,,,,,,,,,,,,,,,,,,,,,,,,,,,,,,,,,,,,,,,,,,,,,,,,,,,,,,,,,,,return,68.07622, sambuca being played,0,62,62,70,1,SoundMST/Airhorn.wav,SAME,,
,,,,,,,,,,,,,,5e13a1381e2e589db94cd20b,58,2021-03-25_02h15.54.603,CombinedMST_OA,2020.2.10,MacIntel,60,,,,,,,,,,,,,,,,,,,,,,,,,,,,,,,,,,,,,,,,,,,,,,,,,,,,,,,,,,,,,,,,,,,,,,,,,,,,,,,,,,,,,,,,,,,,,,,,,,,,,return,13.81543, multiple handclaps,0,63,63,23,1,SoundMST/Clap_C.wav,SIMILAR,,
,,,,,,,,,,,,,,5e13a1381e2e589db94cd20b,58,2021-03-25_02h15.54.603,CombinedMST_OA,2020.2.10,MacIntel,60,,,,,,,,,,,,,,,,,,,,,,,,,,,,,,,,,,,,,,,,,,,,,,,,,,,,,,,,,,,,,,,,,,,,,,,,,,,,,,,,,,,,,,,,,,,,,,,,,,,,,return,10.41447, big cat roaring,0,64,64,43,1,SoundMST/Growl_G.wav,SIMILAR,,
,,,,,,,,,,,,,,5e13a1381e2e589db94cd20b,58,2021-03-25_02h15.54.603,CombinedMST_OA,2020.2.10,MacIntel,60,,,,,,,,,,,,,,,,,,,,,,,,,,,,,,,,,,,,,,,,,,,,,,,,,,,,,,,,,,,,,,,,,,,,,,,,,,,,,,,,,,,,,,,,,,,,,,,,,,,,,return,36.51129, flying mosquito buzzing,0,65,65,53,1,SoundMST/Mosquito_B.wav,SAME,,
,,,,,,,,,,,,,,5e13a1381e2e589db94cd20b,58,2021-03-25_02h15.54.603,CombinedMST_OA,2020.2.10,MacIntel,60,,,,,,,,,,,,,,,,,,,,,,,,,,,,,,,,,,,,,,,,,,,,,,,,,,,,,,,,,,,,,,,,,,,,,,,,,,,,,,,,,,,,,,,,,,,,,,,,,,,,,return,6.4234, snoring,0,66,66,10,1,SoundMST/Snore_E.wav,SIMILAR,,
,,,,,,,,,,,,,,5e13a1381e2e589db94cd20b,58,2021-03-25_02h15.54.603,CombinedMST_OA,2020.2.10,MacIntel,60,,,,,,,,,,,,,,,,,,,,,,,,,,,,,,,,,,,,,,,,,,,,,,,,,,,,,,,,,,,,,,,,,,,,,,,,,,,,,,,,,,,,,,,,,,,,,,,,,,,,,return,33.336995, ice blocks dropping into a glass,0,67,67,57,1,SoundMST/IceDrop.wav,SAME,,
,,,,,,,,,,,,,,5e13a1381e2e589db94cd20b,58,2021-03-25_02h15.54.603,CombinedMST_OA,2020.2.10,MacIntel,60,,,,,,,,,,,,,,,,,,,,,,,,,,,,,,,,,,,,,,,,,,,,,,,,,,,,,,,,,,,,,,,,,,,,,,,,,,,,,,,,,,,,,,,,,,,,,,,,,,,,,return,5.572535, bird song,0,68,68,31,1,SoundMST/Bird_E.wav,SIMILAR,,
,,,,,,,,,,,,,,5e13a1381e2e589db94cd20b,58,2021-03-25_02h15.54.603,CombinedMST_OA,2020.2.10,MacIntel,60,,,,,,,,,,,,,,,,,,,,,,,,,,,,,,,,,,,,,,,,,,,,,,,,,,,,,,,,,,,,,,,,,,,,,,,,,,,,,,,,,,,,,,,,,,,,,,,,,,,,,return,13.93856, a whistle being blown,0,69,69,35,1,SoundMST/Whistle_B.wav,SIMILAR,,
,,,,,,,,,,,,,,5e13a1381e2e589db94cd20b,58,2021-03-25_02h15.54.603,CombinedMST_OA,2020.2.10,MacIntel,60,,,,,,,,,,,,,,,,,,,,,,,,,,,,,,,,,,,,,,,,,,,,,,,,,,,,,,,,,,,,,,,,,,,,,,,,,,,,,,,,,,,,,,,,,,,,,,,,,,,,,return,30.784455, cuckoo clock chiming with bird song and bell.,0,70,70,75,1,SoundMST/Cuckoo_A.wav,SAME,,
,,,,,,,,,,,,,,5e13a1381e2e589db94cd20b,58,2021-03-25_02h15.54.603,CombinedMST_OA,2020.2.10,MacIntel,60,,,,,,,,,,,,,,,,,,,,,,,,,,,,,,,,,,,,,,,,,,,,,,,,,,,,,,,,,,,,,,,,,,,,,,,,,,,,,,,,,,,,,,,,,,,,,,,,,,,,,return,20.073855, combustion engine starting,0,71,71,22,1,SoundMST/CarStart_F.wav,SIMILAR,,
,,,,,,,,,,,,,,5e13a1381e2e589db94cd20b,58,2021-03-25_02h15.54.603,CombinedMST_OA,2020.2.10,MacIntel,60,,,,,,,,,,,,,,,,,,,,,,,,,,,,,,,,,,,,,,,,,,,,,,,,,,,,,,,,,,,,,,,,,,,,,,,,,,,,,,,,,,,,,,,,,,,,,,,,,,,,,return,16.084675, hammering,0,72,72,76,1,SoundMST/Hammer_A.wav,SAME,,
,,,,,,,,,,,,,,5e13a1381e2e589db94cd20b,58,2021-03-25_02h15.54.603,CombinedMST_OA,2020.2.10,MacIntel,60,,,,,,,,,,,,,,,,,,,,,,,,,,,,,,,,,,,,,,,,,,,,,,,,,,,,,,,,,,,,,,,,,,,,,,,,,,,,,,,,,,,,,,,,,,,,,,,,,,,,,return,7.612335, crow cawing,0,73,73,39,1,SoundMST/Crow_B.wav,SIMILAR,,
,,,,,,,,,,,,,,5e13a1381e2e589db94cd20b,58,2021-03-25_02h15.54.603,CombinedMST_OA,2020.2.10,MacIntel,60,,,,,,,,,,,,,,,,,,,,,,,,,,,,,,,,,,,,,,,,,,,,,,,,,,,,,,,,,,,,,,,,,,,,,,,,,,,,,,,,,,,,,,,,,,,,,,,,,,,,,return,20.355915, couns being scraped on wood,0,74,74,18,1,SoundMST/Coin_E.wav,SIMILAR,,
,,,,,,,,,,,,,,5e13a1381e2e589db94cd20b,58,2021-03-25_02h15.54.603,CombinedMST_OA,2020.2.10,MacIntel,60,,,,,,,,,,,,,,,,,,,,,,,,,,,,,,,,,,,,,,,,,,,,,,,,,,,,,,,,,,,,,,,,,,,,,,,,,,,,,,,,,,,,,,,,,,,,,,,,,,,,,return,32.05291, writing with pencil,0,75,75,27,1,SoundMST/Writing_A.wav,SIMILAR,,
,,,,,,,,,,,,,,5e13a1381e2e589db94cd20b,58,2021-03-25_02h15.54.603,CombinedMST_OA,2020.2.10,MacIntel,60,,,,,,,,,,,,,,,,,,,,,,,,,,,,,,,,,,,,,,,,,,,,,,,,,,,,,,,,,,,,,,,,,,,,,,,,,,,,,,,,,,,,,,,,,,,,,,,,,,,,,return,15.150245, chewing and crunching,0,76,76,36,1,SoundMST/Chomp_A.wav,SIMILAR,,
,,,,,,,,,,,,,,5e13a1381e2e589db94cd20b,58,2021-03-25_02h15.54.603,CombinedMST_OA,2020.2.10,MacIntel,60,,,,,,,,,,,,,,,,,,,,,,,,,,,,,,,,,,,,,,,,,,,,,,,,,,,,,,,,,,,,,,,,,,,,,,,,,,,,,,,,,,,,,,,,,,,,,,,,,,,,,return,13.798105, telephone bell ring,0,77,77,13,1,SoundMST/Phone_E.wav,SIMILAR,,
,,,,,,,,,,,,,,5e13a1381e2e589db94cd20b,58,2021-03-25_02h15.54.603,CombinedMST_OA,2020.2.10,MacIntel,60,,,,,,,,,,,,,,,,,,,,,,,,,,,,,,,,,,,,,,,,,,,,,,,,,,,,,,,,,,,,,,,,,,,,,,,,,,,,,,,,,,,,,,,,,,,,,,,,,,,,,return,16.535405, typing on keyboard,0,78,78,49,1,SoundMST/Typing.wav,SAME,,
,,,,,,,,,,,,,,5e13a1381e2e589db94cd20b,58,2021-03-25_02h15.54.603,CombinedMST_OA,2020.2.10,MacIntel,60,,,,,,,,,,,,,,,,,,,,,,,,,,,,,,,,,,,,,,,,,,,,,,,,,,,,,,,,,,,,,,,,,,,,,,,,,,,,,,,,,,,,,,,,,,,,,,,,,,,,,return,7.94231, dog barking,0,79,79,41,1,SoundMST/Dog_H.wav,SIMILAR,,
,,,,,,,,,,,,,,5e13a1381e2e589db94cd20b,58,2021-03-25_02h15.54.603,CombinedMST_OA,2020.2.10,MacIntel,60,,,,,,,,,,,,,,,,,,,,,,,,,,,,,,,,,,,,,,,,,,,,,,,,,,,,,,,,,,,,,,,,,,,,,,,,,,,,,,,,,,,,,,,,,,,,,,,,,,,,,return,14.30336, person walking on wood,0,80,80,40,1,SoundMST/Footsteps_C.wav,SIMILAR,,
,,,,,,,,,,,,,,5e13a1381e2e589db94cd20b,58,2021-03-25_02h15.54.603,CombinedMST_OA,2020.2.10,MacIntel,60,,,,,,,,,,,,,,,,,,,,,,,,,,,,,,,,,,,,,,,,,,,,,,,,,,,,,,,,,,,,,,,,,,,,,,,,,,,,,,,,,,,,,,,,,,,,,,,,,,,,,return,10.36159, water running,0,81,81,5,1,SoundMST/Faucet_C.wav,SIMILAR,,
,,,,,,,,,,,,,,5e13a1381e2e589db94cd20b,58,2021-03-25_02h15.54.603,CombinedMST_OA,2020.2.10,MacIntel,60,,,,,,,,,,,,,,,,,,,,,,,,,,,,,,,,,,,,,,,,,,,,,,,,,,,,,,,,,,,,,,,,,,,,,,,,,,,,,,,,,,,,,,,,,,,,,,,,,,,,,return,36.239535, writing with chalk,0,82,82,3,1,SoundMST/Writing_C.wav,SIMILAR,,
,,,,,,,,,,,,,,5e13a1381e2e589db94cd20b,58,2021-03-25_02h15.54.603,CombinedMST_OA,2020.2.10,MacIntel,60,,,,,,,,,,,,,,,,,,,,,,,,,,,,,,,,,,,,,,,,,,,,,,,,,,,,,,,,,,,,,,,,,,,,,,,,,,,,,,,,,,,,,,,,,,,,,,,,,,,,,return,16.56819, steam train horn,0,83,83,86,1,SoundMST/Steam.wav,SAME,,
,,,,,,,,,,,,,,5e13a1381e2e589db94cd20b,58,2021-03-25_02h15.54.603,CombinedMST_OA,2020.2.10,MacIntel,60,,,,,,,,,,,,,,,,,,,,,,,,,,,,,,,,,,,,,,,,,,,,,,,,,,,,,,,,,,,,,,,,,,,,,,,,,,,,,,,,,,,,,,,,,,,,,,,,,,,,,return,14.149775, several people laughing,0,84,84,33,1,SoundMST/Laugh_A.wav,SIMILAR,,
,,,,,,,,,,,,,,5e13a1381e2e589db94cd20b,58,2021-03-25_02h15.54.603,CombinedMST_OA,2020.2.10,MacIntel,60,,,,,,,,,,,,,,,,,,,,,,,,,,,,,,,,,,,,,,,,,,,,,,,,,,,,,,,,,,,,,,,,,,,,,,,,,,,,,,,,,,,,,,,,,,,,,,,,,,,,,return,11.5794, Goose quaking,0,85,85,32,1,SoundMST/Duck_C.wav,SIMILAR,,
,,,,,,,,,,,,,,5e13a1381e2e589db94cd20b,58,2021-03-25_02h15.54.603,CombinedMST_OA,2020.2.10,MacIntel,60,,,,,,,,,,,,,,,,,,,,,,,,,,,,,,,,,,,,,,,,,,,,,,,,,,,,,,,,,,,,,,,,,,,,,,,,,,,,,,,,,,,,,,,,,,,,,,,,,,,,,return,37.14628, heartbeat through stethascope,0,86,86,56,1,SoundMST/Heartbeat.wav,SAME,,
,,,,,,,,,,,,,,5e13a1381e2e589db94cd20b,58,2021-03-25_02h15.54.603,CombinedMST_OA,2020.2.10,MacIntel,60,,,,,,,,,,,,,,,,,,,,,,,,,,,,,,,,,,,,,,,,,,,,,,,,,,,,,,,,,,,,,,,,,,,,,,,,,,,,,,,,,,,,,,,,,,,,,,,,,,,,,return,8.34268, water gurgling,0,87,87,21,1,SoundMST/Bubbles_B.wav,SIMILAR,,
,,,,,,,,,,,,,,5e13a1381e2e589db94cd20b,58,2021-03-25_02h15.54.603,CombinedMST_OA,2020.2.10,MacIntel,60,,,,,,,,,,,,,,,,,,,,,,,,,,,,,,,,,,,,,,,,,,,,,,,,,,,,,,,,,,,,,,,,,,,,,,,,,,,,,,,,,,,,,,,,,,,,,,,,,,,,,,,,,,,,,,,space,56.516975
