VolumeContinueKey.keys,VolumeContinueKey.rt,HeadphoneContinueKey.keys,HeadphoneContinueKey.rt,CheckResp.keys,CheckResp.corr,CheckResp.rt,trials_3.thisRepN,trials_3.thisTrialN,trials_3.thisN,trials_3.thisIndex,trials_3.ran,File,Correct,participant,Age,date,expName,psychopyVersion,OS,frameRate,Welcome0ContKey.keys,Welcome0ContKey.rt,key_resp.keys,key_resp.rt,WelcomeSound2ContKey.keys,WelcomeSound2ContKey.rt,WelcomeContinueKey2.keys,WelcomeContinueKey2.rt,PracticeSoundKey.keys,PracticeSoundKey.corr,PracticeSoundKey.rt,SoundPracticeLoop.thisRepN,SoundPracticeLoop.thisTrialN,SoundPracticeLoop.thisN,SoundPracticeLoop.thisIndex,SoundPracticeLoop.ran,SoundMST_File,SoundCorrect,Correct2,SoundType,Trial,MSTSoundStrtKey.keys,MSTSoundStrtKey.rt,MSTSoundKey.keys,MSTSoundKey.corr,MSTSoundKey.rt,MSTSoundLoop.thisRepN,MSTSoundLoop.thisTrialN,MSTSoundLoop.thisN,MSTSoundLoop.thisIndex,MSTSoundLoop.ran,AttnCheck2Keys.keys,AttnCheck2Keys.rt,AttnCheck2Resp.text,SoundTask.thisRepN,SoundTask.thisTrialN,SoundTask.thisN,SoundTask.thisIndex,SoundTask.ran,Counterbalance.thisRepN,Counterbalance.thisTrialN,Counterbalance.thisN,Counterbalance.thisIndex,Counterbalance.ran,WordOrder,SoundOrder,ContinueResp.keys,ContinueResp.rt,Wel2ContinueKey.keys,Wel2ContinueKey.rt,Practice_resp.keys,Practice_resp.corr,Practice_resp.rt,PracticeTrials.thisRepN,PracticeTrials.thisTrialN,PracticeTrials.thisN,PracticeTrials.thisIndex,PracticeTrials.ran,SoundFile,Type,StartTast.keys,StartTast.rt,MST_resp.keys,MST_resp.corr,MST_resp.rt,trials.thisRepN,trials.thisTrialN,trials.thisN,trials.thisIndex,trials.ran,WordCorrect,Correct_type,WordType,Condition,Attn1ContKey.keys,Attn1ContKey.rt,AttnCheckResp.text,SyllblCheckContKey.keys,SyllblCheckContKey.rt,SyllblCheckResp.keys,SyllblCheckResp.corr,SyllblCheckResp.rt,trials_2.thisRepN,trials_2.thisTrialN,trials_2.thisN,trials_2.thisIndex,trials_2.ran,Target,Word1,Word2,Word3,WordTask.thisRepN,WordTask.thisTrialN,WordTask.thisN,WordTask.thisIndex,WordTask.ran,key_resp_4.keys,key_resp_4.rt,GuessSoundIntro2Cont.keys,GuessSoundIntro2Cont.rt,GSSubmit.keys,GSSubmit.rt,GSResponse.text,GuessSoundLoop.thisRepN,GuessSoundLoop.thisTrialN,GuessSoundLoop.thisN,GuessSoundLoop.thisIndex,GuessSoundLoop.ran,GS_File,GS_Type,ExitKey.keys,ExitKey.rt
space,7.199,space,11.135,1,1,2.551,0,0,0,1,1,Headphone/t1_2.wav,1,55b9a9b0fdf99b6906d2aba4,65,2021-03-25_02h12.05.408,CombinedMST_OA,2020.2.10,Win32,60,,,,,,,,,,,,,,,,,,,,,,,,,,,,,,,,,,,,,,,,,,,,,,,,,,,,,,,,,,,,,,,,,,,,,,,,,,,,,,,,,,,,,,,,,,,,,,,,,,,,,,,,,,,,,,,,
,,,,3,1,2.284,0,1,1,5,1,Headphone/t3_2.wav,3,55b9a9b0fdf99b6906d2aba4,65,2021-03-25_02h12.05.408,CombinedMST_OA,2020.2.10,Win32,60,,,,,,,,,,,,,,,,,,,,,,,,,,,,,,,,,,,,,,,,,,,,,,,,,,,,,,,,,,,,,,,,,,,,,,,,,,,,,,,,,,,,,,,,,,,,,,,,,,,,,,,,,,,,,,,,
,,,,3,1,1.694,0,2,2,4,1,Headphone/t3_1.wav,3,55b9a9b0fdf99b6906d2aba4,65,2021-03-25_02h12.05.408,CombinedMST_OA,2020.2.10,Win32,60,,,,,,,,,,,,,,,,,,,,,,,,,,,,,,,,,,,,,,,,,,,,,,,,,,,,,,,,,,,,,,,,,,,,,,,,,,,,,,,,,,,,,,,,,,,,,,,,,,,,,,,,,,,,,,,,
,,,,2,1,0.954,0,3,3,2,1,Headphone/t2_1.wav,2,55b9a9b0fdf99b6906d2aba4,65,2021-03-25_02h12.05.408,CombinedMST_OA,2020.2.10,Win32,60,,,,,,,,,,,,,,,,,,,,,,,,,,,,,,,,,,,,,,,,,,,,,,,,,,,,,,,,,,,,,,,,,,,,,,,,,,,,,,,,,,,,,,,,,,,,,,,,,,,,,,,,,,,,,,,,
,,,,2,1,0.867,0,4,4,3,1,Headphone/t2_2.wav,2,55b9a9b0fdf99b6906d2aba4,65,2021-03-25_02h12.05.408,CombinedMST_OA,2020.2.10,Win32,60,,,,,,,,,,,,,,,,,,,,,,,,,,,,,,,,,,,,,,,,,,,,,,,,,,,,,,,,,,,,,,,,,,,,,,,,,,,,,,,,,,,,,,,,,,,,,,,,,,,,,,,,,,,,,,,,
,,,,1,1,0.554,0,5,5,0,1,Headphone/t1_1.wav,1,55b9a9b0fdf99b6906d2aba4,65,2021-03-25_02h12.05.408,CombinedMST_OA,2020.2.10,Win32,60,,,,,,,,,,,,,,,,,,,,,,,,,,,,,,,,,,,,,,,,,,,,,,,,,,,,,,,,,,,,,,,,,,,,,,,,,,,,,,,,,,,,,,,,,,,,,,,,,,,,,,,,,,,,,,,,
,,,,,,,,,,,,,,55b9a9b0fdf99b6906d2aba4,65,2021-03-25_02h12.05.408,CombinedMST_OA,2020.2.10,Win32,60,space,7.872,space,20.976,space,10.398,space,5.226,2,1,5.231,0,0,0,0,1,Practice/Seagull_A.wav,2,3,NEW,Practice,,,,,,,,,,,,,,,,,,,,,,,,,,,,,,,,,,,,,,,,,,,,,,,,,,,,,,,,,,,,,,,,,,,,,,,,,,,,,,,,,,,,,,,,,,,
,,,,,,,,,,,,,,55b9a9b0fdf99b6906d2aba4,65,2021-03-25_02h12.05.408,CombinedMST_OA,2020.2.10,Win32,60,,,,,,,,,2,1,1.606,0,1,1,1,1,Practice/Skid_B.wav,2,3,NEW,Practice,,,,,,,,,,,,,,,,,,,,,,,,,,,,,,,,,,,,,,,,,,,,,,,,,,,,,,,,,,,,,,,,,,,,,,,,,,,,,,,,,,,,,,,,,,,
,,,,,,,,,,,,,,55b9a9b0fdf99b6906d2aba4,65,2021-03-25_02h12.05.408,CombinedMST_OA,2020.2.10,Win32,60,,,,,,,,,1,1,1.464,0,2,2,2,1,Practice/Seagull_A.wav,1,1,OLD,Practice,,,,,,,,,,,,,,,,,,,,,,,,,,,,,,,,,,,,,,,,,,,,,,,,,,,,,,,,,,,,,,,,,,,,,,,,,,,,,,,,,,,,,,,,,,,
,,,,,,,,,,,,,,55b9a9b0fdf99b6906d2aba4,65,2021-03-25_02h12.05.408,CombinedMST_OA,2020.2.10,Win32,60,,,,,,,,,2,1,2.011,0,3,3,3,1,Practice/Gargle_A.wav,2,3,NEW,Practice,,,,,,,,,,,,,,,,,,,,,,,,,,,,,,,,,,,,,,,,,,,,,,,,,,,,,,,,,,,,,,,,,,,,,,,,,,,,,,,,,,,,,,,,,,,
,,,,,,,,,,,,,,55b9a9b0fdf99b6906d2aba4,65,2021-03-25_02h12.05.408,CombinedMST_OA,2020.2.10,Win32,60,,,,,,,,,2,1,2.03,0,4,4,4,1,Practice/Gargle_B.wav,2,2,SIMILAR,Practice,,,,,,,,,,,,,,,,,,,,,,,,,,,,,,,,,,,,,,,,,,,,,,,,,,,,,,,,,,,,,,,,,,,,,,,,,,,,,,,,,,,,,,,,,,,
,,,,,,,,,,,,,,55b9a9b0fdf99b6906d2aba4,65,2021-03-25_02h12.05.408,CombinedMST_OA,2020.2.10,Win32,60,,,,,,,,,,,,,,,,,SoundMST/ManWhistle.wav,2,3,NEW,B,space,16.777,2,1,1.39,0,0,0,0,1,,,,,,,,,,,,,,,,,,,,,,,,,,,,,,,,,,,,,,,,,,,,,,,,,,,,,,,,,,,,,,,,,,,,,,,,,,,,,,,,,
,,,,,,,,,,,,,,55b9a9b0fdf99b6906d2aba4,65,2021-03-25_02h12.05.408,CombinedMST_OA,2020.2.10,Win32,60,,,,,,,,,,,,,,,,,SoundMST/Siren_E.wav,2,3,NEW,B,,,2,1,0.906,0,1,1,1,1,,,,,,,,,,,,,,,,,,,,,,,,,,,,,,,,,,,,,,,,,,,,,,,,,,,,,,,,,,,,,,,,,,,,,,,,,,,,,,,,,
,,,,,,,,,,,,,,55b9a9b0fdf99b6906d2aba4,65,2021-03-25_02h12.05.408,CombinedMST_OA,2020.2.10,Win32,60,,,,,,,,,,,,,,,,,SoundMST/Footsteps_C.wav,2,3,NEW,B,,,2,1,1.368,0,2,2,2,1,,,,,,,,,,,,,,,,,,,,,,,,,,,,,,,,,,,,,,,,,,,,,,,,,,,,,,,,,,,,,,,,,,,,,,,,,,,,,,,,,
,,,,,,,,,,,,,,55b9a9b0fdf99b6906d2aba4,65,2021-03-25_02h12.05.408,CombinedMST_OA,2020.2.10,Win32,60,,,,,,,,,,,,,,,,,SoundMST/Chicken_A.wav,2,3,NEW,B,,,2,1,1.106,0,3,3,3,1,,,,,,,,,,,,,,,,,,,,,,,,,,,,,,,,,,,,,,,,,,,,,,,,,,,,,,,,,,,,,,,,,,,,,,,,,,,,,,,,,
,,,,,,,,,,,,,,55b9a9b0fdf99b6906d2aba4,65,2021-03-25_02h12.05.408,CombinedMST_OA,2020.2.10,Win32,60,,,,,,,,,,,,,,,,,SoundMST/Phone_D.wav,2,3,NEW,B,,,2,1,0.692,0,4,4,4,1,,,,,,,,,,,,,,,,,,,,,,,,,,,,,,,,,,,,,,,,,,,,,,,,,,,,,,,,,,,,,,,,,,,,,,,,,,,,,,,,,
,,,,,,,,,,,,,,55b9a9b0fdf99b6906d2aba4,65,2021-03-25_02h12.05.408,CombinedMST_OA,2020.2.10,Win32,60,,,,,,,,,,,,,,,,,SoundMST/Cup.wav,2,3,NEW,B,,,2,1,0.849,0,5,5,5,1,,,,,,,,,,,,,,,,,,,,,,,,,,,,,,,,,,,,,,,,,,,,,,,,,,,,,,,,,,,,,,,,,,,,,,,,,,,,,,,,,
,,,,,,,,,,,,,,55b9a9b0fdf99b6906d2aba4,65,2021-03-25_02h12.05.408,CombinedMST_OA,2020.2.10,Win32,60,,,,,,,,,,,,,,,,,SoundMST/Bowlingpins.wav,2,3,NEW,B,,,2,1,0.758,0,6,6,6,1,,,,,,,,,,,,,,,,,,,,,,,,,,,,,,,,,,,,,,,,,,,,,,,,,,,,,,,,,,,,,,,,,,,,,,,,,,,,,,,,,
,,,,,,,,,,,,,,55b9a9b0fdf99b6906d2aba4,65,2021-03-25_02h12.05.408,CombinedMST_OA,2020.2.10,Win32,60,,,,,,,,,,,,,,,,,SoundMST/Bird_C.wav,2,3,NEW,B,,,2,1,1.011,0,7,7,7,1,,,,,,,,,,,,,,,,,,,,,,,,,,,,,,,,,,,,,,,,,,,,,,,,,,,,,,,,,,,,,,,,,,,,,,,,,,,,,,,,,
,,,,,,,,,,,,,,55b9a9b0fdf99b6906d2aba4,65,2021-03-25_02h12.05.408,CombinedMST_OA,2020.2.10,Win32,60,,,,,,,,,,,,,,,,,SoundMST/HairDryer_A.wav,2,3,NEW,B,,,2,1,0.764,0,8,8,8,1,,,,,,,,,,,,,,,,,,,,,,,,,,,,,,,,,,,,,,,,,,,,,,,,,,,,,,,,,,,,,,,,,,,,,,,,,,,,,,,,,
,,,,,,,,,,,,,,55b9a9b0fdf99b6906d2aba4,65,2021-03-25_02h12.05.408,CombinedMST_OA,2020.2.10,Win32,60,,,,,,,,,,,,,,,,,SoundMST/Faucet_A.wav,2,3,NEW,B,,,2,1,1.052,0,9,9,9,1,,,,,,,,,,,,,,,,,,,,,,,,,,,,,,,,,,,,,,,,,,,,,,,,,,,,,,,,,,,,,,,,,,,,,,,,,,,,,,,,,
,,,,,,,,,,,,,,55b9a9b0fdf99b6906d2aba4,65,2021-03-25_02h12.05.408,CombinedMST_OA,2020.2.10,Win32,60,,,,,,,,,,,,,,,,,SoundMST/Siren_A.wav,2,2,SIMILAR,B,,,2,1,0.726,0,10,10,10,1,,,,,,,,,,,,,,,,,,,,,,,,,,,,,,,,,,,,,,,,,,,,,,,,,,,,,,,,,,,,,,,,,,,,,,,,,,,,,,,,,
,,,,,,,,,,,,,,55b9a9b0fdf99b6906d2aba4,65,2021-03-25_02h12.05.408,CombinedMST_OA,2020.2.10,Win32,60,,,,,,,,,,,,,,,,,SoundMST/Laugh_A.wav,2,3,NEW,B,,,2,1,0.779,0,11,11,11,1,,,,,,,,,,,,,,,,,,,,,,,,,,,,,,,,,,,,,,,,,,,,,,,,,,,,,,,,,,,,,,,,,,,,,,,,,,,,,,,,,
,,,,,,,,,,,,,,55b9a9b0fdf99b6906d2aba4,65,2021-03-25_02h12.05.408,CombinedMST_OA,2020.2.10,Win32,60,,,,,,,,,,,,,,,,,SoundMST/ManWhistle.wav,1,1,OLD,B,,,1,1,1.141,0,12,12,12,1,,,,,,,,,,,,,,,,,,,,,,,,,,,,,,,,,,,,,,,,,,,,,,,,,,,,,,,,,,,,,,,,,,,,,,,,,,,,,,,,,
,,,,,,,,,,,,,,55b9a9b0fdf99b6906d2aba4,65,2021-03-25_02h12.05.408,CombinedMST_OA,2020.2.10,Win32,60,,,,,,,,,,,,,,,,,SoundMST/Cow.wav,2,3,NEW,B,,,2,1,0.807,0,13,13,13,1,,,,,,,,,,,,,,,,,,,,,,,,,,,,,,,,,,,,,,,,,,,,,,,,,,,,,,,,,,,,,,,,,,,,,,,,,,,,,,,,,
,,,,,,,,,,,,,,55b9a9b0fdf99b6906d2aba4,65,2021-03-25_02h12.05.408,CombinedMST_OA,2020.2.10,Win32,60,,,,,,,,,,,,,,,,,SoundMST/Cough_C.wav,2,3,NEW,B,,,2,1,0.891,0,14,14,14,1,,,,,,,,,,,,,,,,,,,,,,,,,,,,,,,,,,,,,,,,,,,,,,,,,,,,,,,,,,,,,,,,,,,,,,,,,,,,,,,,,
,,,,,,,,,,,,,,55b9a9b0fdf99b6906d2aba4,65,2021-03-25_02h12.05.408,CombinedMST_OA,2020.2.10,Win32,60,,,,,,,,,,,,,,,,,SoundMST/Phone_E.wav,2,2,SIMILAR,B,,,1,0,0.782,0,15,15,15,1,,,,,,,,,,,,,,,,,,,,,,,,,,,,,,,,,,,,,,,,,,,,,,,,,,,,,,,,,,,,,,,,,,,,,,,,,,,,,,,,,
,,,,,,,,,,,,,,55b9a9b0fdf99b6906d2aba4,65,2021-03-25_02h12.05.408,CombinedMST_OA,2020.2.10,Win32,60,,,,,,,,,,,,,,,,,SoundMST/Chime_B.wav,2,3,NEW,B,,,2,1,0.74,0,16,16,16,1,,,,,,,,,,,,,,,,,,,,,,,,,,,,,,,,,,,,,,,,,,,,,,,,,,,,,,,,,,,,,,,,,,,,,,,,,,,,,,,,,
,,,,,,,,,,,,,,55b9a9b0fdf99b6906d2aba4,65,2021-03-25_02h12.05.408,CombinedMST_OA,2020.2.10,Win32,60,,,,,,,,,,,,,,,,,SoundMST/Footsteps_F.wav,2,2,SIMILAR,B,,,2,1,0.766,0,17,17,17,1,,,,,,,,,,,,,,,,,,,,,,,,,,,,,,,,,,,,,,,,,,,,,,,,,,,,,,,,,,,,,,,,,,,,,,,,,,,,,,,,,
,,,,,,,,,,,,,,55b9a9b0fdf99b6906d2aba4,65,2021-03-25_02h12.05.408,CombinedMST_OA,2020.2.10,Win32,60,,,,,,,,,,,,,,,,,SoundMST/Toilet_B.wav,2,3,NEW,B,,,1,0,0.694,0,18,18,18,1,,,,,,,,,,,,,,,,,,,,,,,,,,,,,,,,,,,,,,,,,,,,,,,,,,,,,,,,,,,,,,,,,,,,,,,,,,,,,,,,,
,,,,,,,,,,,,,,55b9a9b0fdf99b6906d2aba4,65,2021-03-25_02h12.05.408,CombinedMST_OA,2020.2.10,Win32,60,,,,,,,,,,,,,,,,,SoundMST/Piano_D.wav,2,3,NEW,B,,,2,1,0.851,0,19,19,19,1,,,,,,,,,,,,,,,,,,,,,,,,,,,,,,,,,,,,,,,,,,,,,,,,,,,,,,,,,,,,,,,,,,,,,,,,,,,,,,,,,
,,,,,,,,,,,,,,55b9a9b0fdf99b6906d2aba4,65,2021-03-25_02h12.05.408,CombinedMST_OA,2020.2.10,Win32,60,,,,,,,,,,,,,,,,,SoundMST/Cup.wav,1,1,OLD,B,,,1,1,0.914,0,20,20,20,1,,,,,,,,,,,,,,,,,,,,,,,,,,,,,,,,,,,,,,,,,,,,,,,,,,,,,,,,,,,,,,,,,,,,,,,,,,,,,,,,,
,,,,,,,,,,,,,,55b9a9b0fdf99b6906d2aba4,65,2021-03-25_02h12.05.408,CombinedMST_OA,2020.2.10,Win32,60,,,,,,,,,,,,,,,,,SoundMST/HairDryer_A.wav,1,1,OLD,B,,,1,1,0.737,0,21,21,21,1,,,,,,,,,,,,,,,,,,,,,,,,,,,,,,,,,,,,,,,,,,,,,,,,,,,,,,,,,,,,,,,,,,,,,,,,,,,,,,,,,
,,,,,,,,,,,,,,55b9a9b0fdf99b6906d2aba4,65,2021-03-25_02h12.05.408,CombinedMST_OA,2020.2.10,Win32,60,,,,,,,,,,,,,,,,,SoundMST/Thunder_A.wav,2,3,NEW,B,,,2,1,0.887,0,22,22,22,1,,,,,,,,,,,,,,,,,,,,,,,,,,,,,,,,,,,,,,,,,,,,,,,,,,,,,,,,,,,,,,,,,,,,,,,,,,,,,,,,,
,,,,,,,,,,,,,,55b9a9b0fdf99b6906d2aba4,65,2021-03-25_02h12.05.408,CombinedMST_OA,2020.2.10,Win32,60,,,,,,,,,,,,,,,,,SoundMST/Chicken_A.wav,1,1,OLD,B,,,1,1,1.181,0,23,23,23,1,,,,,,,,,,,,,,,,,,,,,,,,,,,,,,,,,,,,,,,,,,,,,,,,,,,,,,,,,,,,,,,,,,,,,,,,,,,,,,,,,
,,,,,,,,,,,,,,55b9a9b0fdf99b6906d2aba4,65,2021-03-25_02h12.05.408,CombinedMST_OA,2020.2.10,Win32,60,,,,,,,,,,,,,,,,,SoundMST/Whistle_B.wav,2,3,NEW,B,,,2,1,1.147,0,24,24,24,1,,,,,,,,,,,,,,,,,,,,,,,,,,,,,,,,,,,,,,,,,,,,,,,,,,,,,,,,,,,,,,,,,,,,,,,,,,,,,,,,,
,,,,,,,,,,,,,,55b9a9b0fdf99b6906d2aba4,65,2021-03-25_02h12.05.408,CombinedMST_OA,2020.2.10,Win32,60,,,,,,,,,,,,,,,,,SoundMST/Bird_A.wav,2,2,SIMILAR,B,,,1,0,0.794,0,25,25,25,1,,,,,,,,,,,,,,,,,,,,,,,,,,,,,,,,,,,,,,,,,,,,,,,,,,,,,,,,,,,,,,,,,,,,,,,,,,,,,,,,,
,,,,,,,,,,,,,,55b9a9b0fdf99b6906d2aba4,65,2021-03-25_02h12.05.408,CombinedMST_OA,2020.2.10,Win32,60,,,,,,,,,,,,,,,,,SoundMST/Dog_H.wav,2,3,NEW,B,,,2,1,0.768,0,26,26,26,1,,,,,,,,,,,,,,,,,,,,,,,,,,,,,,,,,,,,,,,,,,,,,,,,,,,,,,,,,,,,,,,,,,,,,,,,,,,,,,,,,
,,,,,,,,,,,,,,55b9a9b0fdf99b6906d2aba4,65,2021-03-25_02h12.05.408,CombinedMST_OA,2020.2.10,Win32,60,,,,,,,,,,,,,,,,,SoundMST/Bowlingpins.wav,1,1,OLD,B,,,1,1,0.841,0,27,27,27,1,,,,,,,,,,,,,,,,,,,,,,,,,,,,,,,,,,,,,,,,,,,,,,,,,,,,,,,,,,,,,,,,,,,,,,,,,,,,,,,,,
,,,,,,,,,,,,,,55b9a9b0fdf99b6906d2aba4,65,2021-03-25_02h12.05.408,CombinedMST_OA,2020.2.10,Win32,60,,,,,,,,,,,,,,,,,SoundMST/Fireworks.wav,2,3,NEW,B,,,2,1,0.62,0,28,28,28,1,,,,,,,,,,,,,,,,,,,,,,,,,,,,,,,,,,,,,,,,,,,,,,,,,,,,,,,,,,,,,,,,,,,,,,,,,,,,,,,,,
,,,,,,,,,,,,,,55b9a9b0fdf99b6906d2aba4,65,2021-03-25_02h12.05.408,CombinedMST_OA,2020.2.10,Win32,60,,,,,,,,,,,,,,,,,SoundMST/Cow.wav,1,1,OLD,B,,,1,1,1.061,0,29,29,29,1,,,,,,,,,,,,,,,,,,,,,,,,,,,,,,,,,,,,,,,,,,,,,,,,,,,,,,,,,,,,,,,,,,,,,,,,,,,,,,,,,
,,,,,,,,,,,,,,55b9a9b0fdf99b6906d2aba4,65,2021-03-25_02h12.05.408,CombinedMST_OA,2020.2.10,Win32,60,,,,,,,,,,,,,,,,,SoundMST/Snore_C.wav,2,3,NEW,B,,,2,1,0.652,0,30,30,30,1,,,,,,,,,,,,,,,,,,,,,,,,,,,,,,,,,,,,,,,,,,,,,,,,,,,,,,,,,,,,,,,,,,,,,,,,,,,,,,,,,
,,,,,,,,,,,,,,55b9a9b0fdf99b6906d2aba4,65,2021-03-25_02h12.05.408,CombinedMST_OA,2020.2.10,Win32,60,,,,,,,,,,,,,,,,,SoundMST/Faucet_C.wav,2,2,SIMILAR,B,,,1,0,1.003,0,31,31,31,1,,,,,,,,,,,,,,,,,,,,,,,,,,,,,,,,,,,,,,,,,,,,,,,,,,,,,,,,,,,,,,,,,,,,,,,,,,,,,,,,,
,,,,,,,,,,,,,,55b9a9b0fdf99b6906d2aba4,65,2021-03-25_02h12.05.408,CombinedMST_OA,2020.2.10,Win32,60,,,,,,,,,,,,,,,,,SoundMST/Chime_A.wav,2,2,SIMILAR,B,,,1,0,0.691,0,32,32,32,1,,,,,,,,,,,,,,,,,,,,,,,,,,,,,,,,,,,,,,,,,,,,,,,,,,,,,,,,,,,,,,,,,,,,,,,,,,,,,,,,,
,,,,,,,,,,,,,,55b9a9b0fdf99b6906d2aba4,65,2021-03-25_02h12.05.408,CombinedMST_OA,2020.2.10,Win32,60,,,,,,,,,,,,,,,,,SoundMST/Cough_E.wav,2,2,SIMILAR,B,,,1,0,1.414,0,33,33,33,1,,,,,,,,,,,,,,,,,,,,,,,,,,,,,,,,,,,,,,,,,,,,,,,,,,,,,,,,,,,,,,,,,,,,,,,,,,,,,,,,,
,,,,,,,,,,,,,,55b9a9b0fdf99b6906d2aba4,65,2021-03-25_02h12.05.408,CombinedMST_OA,2020.2.10,Win32,60,,,,,,,,,,,,,,,,,SoundMST/Heartbeat.wav,2,3,NEW,B,,,2,1,0.8,0,34,34,34,1,,,,,,,,,,,,,,,,,,,,,,,,,,,,,,,,,,,,,,,,,,,,,,,,,,,,,,,,,,,,,,,,,,,,,,,,,,,,,,,,,
,,,,,,,,,,,,,,55b9a9b0fdf99b6906d2aba4,65,2021-03-25_02h12.05.408,CombinedMST_OA,2020.2.10,Win32,60,,,,,,,,,,,,,,,,,SoundMST/Laugh_D.wav,2,2,SIMILAR,B,,,2,1,0.631,0,35,35,35,1,,,,,,,,,,,,,,,,,,,,,,,,,,,,,,,,,,,,,,,,,,,,,,,,,,,,,,,,,,,,,,,,,,,,,,,,,,,,,,,,,
,,,,,,,,,,,,,,55b9a9b0fdf99b6906d2aba4,65,2021-03-25_02h12.05.408,CombinedMST_OA,2020.2.10,Win32,60,,,,,,,,,,,,,,,,,SoundMST/Cello.wav,2,3,NEW,B,,,2,1,0.714,0,36,36,36,1,,,,,,,,,,,,,,,,,,,,,,,,,,,,,,,,,,,,,,,,,,,,,,,,,,,,,,,,,,,,,,,,,,,,,,,,,,,,,,,,,
,,,,,,,,,,,,,,55b9a9b0fdf99b6906d2aba4,65,2021-03-25_02h12.05.408,CombinedMST_OA,2020.2.10,Win32,60,,,,,,,,,,,,,,,,,SoundMST/Piano_D.wav,1,1,OLD,B,,,1,1,1.133,0,37,37,37,1,,,,,,,,,,,,,,,,,,,,,,,,,,,,,,,,,,,,,,,,,,,,,,,,,,,,,,,,,,,,,,,,,,,,,,,,,,,,,,,,,
,,,,,,,,,,,,,,55b9a9b0fdf99b6906d2aba4,65,2021-03-25_02h12.05.408,CombinedMST_OA,2020.2.10,Win32,60,,,,,,,,,,,,,,,,,SoundMST/Clap_B.wav,2,3,NEW,B,,,2,1,0.686,0,38,38,38,1,,,,,,,,,,,,,,,,,,,,,,,,,,,,,,,,,,,,,,,,,,,,,,,,,,,,,,,,,,,,,,,,,,,,,,,,,,,,,,,,,
,,,,,,,,,,,,,,55b9a9b0fdf99b6906d2aba4,65,2021-03-25_02h12.05.408,CombinedMST_OA,2020.2.10,Win32,60,,,,,,,,,,,,,,,,,SoundMST/Bagpipe.wav,2,3,NEW,B,,,2,1,0.685,0,39,39,39,1,,,,,,,,,,,,,,,,,,,,,,,,,,,,,,,,,,,,,,,,,,,,,,,,,,,,,,,,,,,,,,,,,,,,,,,,,,,,,,,,,
,,,,,,,,,,,,,,55b9a9b0fdf99b6906d2aba4,65,2021-03-25_02h12.05.408,CombinedMST_OA,2020.2.10,Win32,60,,,,,,,,,,,,,,,,,SoundMST/Growl_G.wav,2,3,NEW,B,,,2,1,0.714,0,40,40,40,1,,,,,,,,,,,,,,,,,,,,,,,,,,,,,,,,,,,,,,,,,,,,,,,,,,,,,,,,,,,,,,,,,,,,,,,,,,,,,,,,,
,,,,,,,,,,,,,,55b9a9b0fdf99b6906d2aba4,65,2021-03-25_02h12.05.408,CombinedMST_OA,2020.2.10,Win32,60,,,,,,,,,,,,,,,,,SoundMST/Airplane_B.wav,2,3,NEW,B,,,2,1,0.817,0,41,41,41,1,,,,,,,,,,,,,,,,,,,,,,,,,,,,,,,,,,,,,,,,,,,,,,,,,,,,,,,,,,,,,,,,,,,,,,,,,,,,,,,,,
,,,,,,,,,,,,,,55b9a9b0fdf99b6906d2aba4,65,2021-03-25_02h12.05.408,CombinedMST_OA,2020.2.10,Win32,60,,,,,,,,,,,,,,,,,SoundMST/Toilet_B.wav,1,1,OLD,B,,,1,1,0.625,0,42,42,42,1,,,,,,,,,,,,,,,,,,,,,,,,,,,,,,,,,,,,,,,,,,,,,,,,,,,,,,,,,,,,,,,,,,,,,,,,,,,,,,,,,
,,,,,,,,,,,,,,55b9a9b0fdf99b6906d2aba4,65,2021-03-25_02h12.05.408,CombinedMST_OA,2020.2.10,Win32,60,,,,,,,,,,,,,,,,,SoundMST/Hammer_A.wav,2,3,NEW,B,,,2,1,0.764,0,43,43,43,1,,,,,,,,,,,,,,,,,,,,,,,,,,,,,,,,,,,,,,,,,,,,,,,,,,,,,,,,,,,,,,,,,,,,,,,,,,,,,,,,,
,,,,,,,,,,,,,,55b9a9b0fdf99b6906d2aba4,65,2021-03-25_02h12.05.408,CombinedMST_OA,2020.2.10,Win32,60,,,,,,,,,,,,,,,,,SoundMST/Goat_B.wav,2,3,NEW,B,,,2,1,0.699,0,44,44,44,1,,,,,,,,,,,,,,,,,,,,,,,,,,,,,,,,,,,,,,,,,,,,,,,,,,,,,,,,,,,,,,,,,,,,,,,,,,,,,,,,,
,,,,,,,,,,,,,,55b9a9b0fdf99b6906d2aba4,65,2021-03-25_02h12.05.408,CombinedMST_OA,2020.2.10,Win32,60,,,,,,,,,,,,,,,,,SoundMST/Coin_D.wav,2,3,NEW,B,,,2,1,0.713,0,45,45,45,1,,,,,,,,,,,,,,,,,,,,,,,,,,,,,,,,,,,,,,,,,,,,,,,,,,,,,,,,,,,,,,,,,,,,,,,,,,,,,,,,,
,,,,,,,,,,,,,,55b9a9b0fdf99b6906d2aba4,65,2021-03-25_02h12.05.408,CombinedMST_OA,2020.2.10,Win32,60,,,,,,,,,,,,,,,,,SoundMST/Fireworks.wav,1,1,OLD,B,,,1,1,0.644,0,46,46,46,1,,,,,,,,,,,,,,,,,,,,,,,,,,,,,,,,,,,,,,,,,,,,,,,,,,,,,,,,,,,,,,,,,,,,,,,,,,,,,,,,,
,,,,,,,,,,,,,,55b9a9b0fdf99b6906d2aba4,65,2021-03-25_02h12.05.408,CombinedMST_OA,2020.2.10,Win32,60,,,,,,,,,,,,,,,,,SoundMST/Donkey.wav,2,3,NEW,B,,,2,1,0.271,0,47,47,47,1,,,,,,,,,,,,,,,,,,,,,,,,,,,,,,,,,,,,,,,,,,,,,,,,,,,,,,,,,,,,,,,,,,,,,,,,,,,,,,,,,
,,,,,,,,,,,,,,55b9a9b0fdf99b6906d2aba4,65,2021-03-25_02h12.05.408,CombinedMST_OA,2020.2.10,Win32,60,,,,,,,,,,,,,,,,,SoundMST/Howl.wav,2,3,NEW,B,,,2,1,0.664,0,48,48,48,1,,,,,,,,,,,,,,,,,,,,,,,,,,,,,,,,,,,,,,,,,,,,,,,,,,,,,,,,,,,,,,,,,,,,,,,,,,,,,,,,,
,,,,,,,,,,,,,,55b9a9b0fdf99b6906d2aba4,65,2021-03-25_02h12.05.408,CombinedMST_OA,2020.2.10,Win32,60,,,,,,,,,,,,,,,,,SoundMST/Thunder_A.wav,1,1,OLD,B,,,1,1,0.662,0,49,49,49,1,,,,,,,,,,,,,,,,,,,,,,,,,,,,,,,,,,,,,,,,,,,,,,,,,,,,,,,,,,,,,,,,,,,,,,,,,,,,,,,,,
,,,,,,,,,,,,,,55b9a9b0fdf99b6906d2aba4,65,2021-03-25_02h12.05.408,CombinedMST_OA,2020.2.10,Win32,60,,,,,,,,,,,,,,,,,SoundMST/Whistle_C.wav,2,2,SIMILAR,B,,,2,1,1.578,0,50,50,50,1,,,,,,,,,,,,,,,,,,,,,,,,,,,,,,,,,,,,,,,,,,,,,,,,,,,,,,,,,,,,,,,,,,,,,,,,,,,,,,,,,
,,,,,,,,,,,,,,55b9a9b0fdf99b6906d2aba4,65,2021-03-25_02h12.05.408,CombinedMST_OA,2020.2.10,Win32,60,,,,,,,,,,,,,,,,,SoundMST/Helicopter_A.wav,2,3,NEW,B,,,2,1,0.759,0,51,51,51,1,,,,,,,,,,,,,,,,,,,,,,,,,,,,,,,,,,,,,,,,,,,,,,,,,,,,,,,,,,,,,,,,,,,,,,,,,,,,,,,,,
,,,,,,,,,,,,,,55b9a9b0fdf99b6906d2aba4,65,2021-03-25_02h12.05.408,CombinedMST_OA,2020.2.10,Win32,60,,,,,,,,,,,,,,,,,SoundMST/Dog_F.wav,2,2,SIMILAR,B,,,1,0,0.788,0,52,52,52,1,,,,,,,,,,,,,,,,,,,,,,,,,,,,,,,,,,,,,,,,,,,,,,,,,,,,,,,,,,,,,,,,,,,,,,,,,,,,,,,,,
,,,,,,,,,,,,,,55b9a9b0fdf99b6906d2aba4,65,2021-03-25_02h12.05.408,CombinedMST_OA,2020.2.10,Win32,60,,,,,,,,,,,,,,,,,SoundMST/Horse.wav,2,3,NEW,B,,,2,1,0.703,0,53,53,53,1,,,,,,,,,,,,,,,,,,,,,,,,,,,,,,,,,,,,,,,,,,,,,,,,,,,,,,,,,,,,,,,,,,,,,,,,,,,,,,,,,
,,,,,,,,,,,,,,55b9a9b0fdf99b6906d2aba4,65,2021-03-25_02h12.05.408,CombinedMST_OA,2020.2.10,Win32,60,,,,,,,,,,,,,,,,,SoundMST/Chomp_A.wav,2,3,NEW,B,,,2,1,0.883,0,54,54,54,1,,,,,,,,,,,,,,,,,,,,,,,,,,,,,,,,,,,,,,,,,,,,,,,,,,,,,,,,,,,,,,,,,,,,,,,,,,,,,,,,,
,,,,,,,,,,,,,,55b9a9b0fdf99b6906d2aba4,65,2021-03-25_02h12.05.408,CombinedMST_OA,2020.2.10,Win32,60,,,,,,,,,,,,,,,,,SoundMST/Heartbeat.wav,1,1,OLD,B,,,1,1,0.711,0,55,55,55,1,,,,,,,,,,,,,,,,,,,,,,,,,,,,,,,,,,,,,,,,,,,,,,,,,,,,,,,,,,,,,,,,,,,,,,,,,,,,,,,,,
,,,,,,,,,,,,,,55b9a9b0fdf99b6906d2aba4,65,2021-03-25_02h12.05.408,CombinedMST_OA,2020.2.10,Win32,60,,,,,,,,,,,,,,,,,SoundMST/Clap_C.wav,2,2,SIMILAR,B,,,1,0,1.315,0,56,56,56,1,,,,,,,,,,,,,,,,,,,,,,,,,,,,,,,,,,,,,,,,,,,,,,,,,,,,,,,,,,,,,,,,,,,,,,,,,,,,,,,,,
,,,,,,,,,,,,,,55b9a9b0fdf99b6906d2aba4,65,2021-03-25_02h12.05.408,CombinedMST_OA,2020.2.10,Win32,60,,,,,,,,,,,,,,,,,SoundMST/Crow_B.wav,2,3,NEW,B,,,2,1,0.661,0,57,57,57,1,,,,,,,,,,,,,,,,,,,,,,,,,,,,,,,,,,,,,,,,,,,,,,,,,,,,,,,,,,,,,,,,,,,,,,,,,,,,,,,,,
,,,,,,,,,,,,,,55b9a9b0fdf99b6906d2aba4,65,2021-03-25_02h12.05.408,CombinedMST_OA,2020.2.10,Win32,60,,,,,,,,,,,,,,,,,SoundMST/Growl_H.wav,2,2,SIMILAR,B,,,1,0,0.924,0,58,58,58,1,,,,,,,,,,,,,,,,,,,,,,,,,,,,,,,,,,,,,,,,,,,,,,,,,,,,,,,,,,,,,,,,,,,,,,,,,,,,,,,,,
,,,,,,,,,,,,,,55b9a9b0fdf99b6906d2aba4,65,2021-03-25_02h12.05.408,CombinedMST_OA,2020.2.10,Win32,60,,,,,,,,,,,,,,,,,SoundMST/Printer.wav,2,3,NEW,B,,,2,1,1.341,0,59,59,59,1,,,,,,,,,,,,,,,,,,,,,,,,,,,,,,,,,,,,,,,,,,,,,,,,,,,,,,,,,,,,,,,,,,,,,,,,,,,,,,,,,
,,,,,,,,,,,,,,55b9a9b0fdf99b6906d2aba4,65,2021-03-25_02h12.05.408,CombinedMST_OA,2020.2.10,Win32,60,,,,,,,,,,,,,,,,,SoundMST/Cello.wav,1,1,OLD,B,,,1,1,0.602,0,60,60,60,1,,,,,,,,,,,,,,,,,,,,,,,,,,,,,,,,,,,,,,,,,,,,,,,,,,,,,,,,,,,,,,,,,,,,,,,,,,,,,,,,,
,,,,,,,,,,,,,,55b9a9b0fdf99b6906d2aba4,65,2021-03-25_02h12.05.408,CombinedMST_OA,2020.2.10,Win32,60,,,,,,,,,,,,,,,,,SoundMST/Snore_E.wav,2,2,SIMILAR,B,,,1,0,0.631,0,61,61,61,1,,,,,,,,,,,,,,,,,,,,,,,,,,,,,,,,,,,,,,,,,,,,,,,,,,,,,,,,,,,,,,,,,,,,,,,,,,,,,,,,,
,,,,,,,,,,,,,,55b9a9b0fdf99b6906d2aba4,65,2021-03-25_02h12.05.408,CombinedMST_OA,2020.2.10,Win32,60,,,,,,,,,,,,,,,,,SoundMST/CarStart_E.wav,2,3,NEW,B,,,2,1,0.609,0,62,62,62,1,,,,,,,,,,,,,,,,,,,,,,,,,,,,,,,,,,,,,,,,,,,,,,,,,,,,,,,,,,,,,,,,,,,,,,,,,,,,,,,,,
,,,,,,,,,,,,,,55b9a9b0fdf99b6906d2aba4,65,2021-03-25_02h12.05.408,CombinedMST_OA,2020.2.10,Win32,60,,,,,,,,,,,,,,,,,SoundMST/Goat_C.wav,2,2,SIMILAR,B,,,1,0,0.73,0,63,63,63,1,,,,,,,,,,,,,,,,,,,,,,,,,,,,,,,,,,,,,,,,,,,,,,,,,,,,,,,,,,,,,,,,,,,,,,,,,,,,,,,,,
,,,,,,,,,,,,,,55b9a9b0fdf99b6906d2aba4,65,2021-03-25_02h12.05.408,CombinedMST_OA,2020.2.10,Win32,60,,,,,,,,,,,,,,,,,SoundMST/Coin_E.wav,2,2,SIMILAR,B,,,1,0,0.863,0,64,64,64,1,,,,,,,,,,,,,,,,,,,,,,,,,,,,,,,,,,,,,,,,,,,,,,,,,,,,,,,,,,,,,,,,,,,,,,,,,,,,,,,,,
,,,,,,,,,,,,,,55b9a9b0fdf99b6906d2aba4,65,2021-03-25_02h12.05.408,CombinedMST_OA,2020.2.10,Win32,60,,,,,,,,,,,,,,,,,SoundMST/Howl.wav,1,1,OLD,B,,,1,1,0.561,0,65,65,65,1,,,,,,,,,,,,,,,,,,,,,,,,,,,,,,,,,,,,,,,,,,,,,,,,,,,,,,,,,,,,,,,,,,,,,,,,,,,,,,,,,
,,,,,,,,,,,,,,55b9a9b0fdf99b6906d2aba4,65,2021-03-25_02h12.05.408,CombinedMST_OA,2020.2.10,Win32,60,,,,,,,,,,,,,,,,,SoundMST/Airplane_B.wav,1,1,OLD,B,,,1,1,0.574,0,66,66,66,1,,,,,,,,,,,,,,,,,,,,,,,,,,,,,,,,,,,,,,,,,,,,,,,,,,,,,,,,,,,,,,,,,,,,,,,,,,,,,,,,,
,,,,,,,,,,,,,,55b9a9b0fdf99b6906d2aba4,65,2021-03-25_02h12.05.408,CombinedMST_OA,2020.2.10,Win32,60,,,,,,,,,,,,,,,,,SoundMST/Mosquito_B.wav,1,1,OLD,B,,,2,0,0.535,0,67,67,67,1,,,,,,,,,,,,,,,,,,,,,,,,,,,,,,,,,,,,,,,,,,,,,,,,,,,,,,,,,,,,,,,,,,,,,,,,,,,,,,,,,
,,,,,,,,,,,,,,55b9a9b0fdf99b6906d2aba4,65,2021-03-25_02h12.05.408,CombinedMST_OA,2020.2.10,Win32,60,,,,,,,,,,,,,,,,,SoundMST/Droplet_B.wav,2,3,NEW,B,,,2,1,0.766,0,68,68,68,1,,,,,,,,,,,,,,,,,,,,,,,,,,,,,,,,,,,,,,,,,,,,,,,,,,,,,,,,,,,,,,,,,,,,,,,,,,,,,,,,,
,,,,,,,,,,,,,,55b9a9b0fdf99b6906d2aba4,65,2021-03-25_02h12.05.408,CombinedMST_OA,2020.2.10,Win32,60,,,,,,,,,,,,,,,,,SoundMST/Donkey.wav,1,1,OLD,B,,,2,0,1.051,0,69,69,69,1,,,,,,,,,,,,,,,,,,,,,,,,,,,,,,,,,,,,,,,,,,,,,,,,,,,,,,,,,,,,,,,,,,,,,,,,,,,,,,,,,
,,,,,,,,,,,,,,55b9a9b0fdf99b6906d2aba4,65,2021-03-25_02h12.05.408,CombinedMST_OA,2020.2.10,Win32,60,,,,,,,,,,,,,,,,,SoundMST/Guitar_B.wav,2,3,NEW,B,,,2,1,0.723,0,70,70,70,1,,,,,,,,,,,,,,,,,,,,,,,,,,,,,,,,,,,,,,,,,,,,,,,,,,,,,,,,,,,,,,,,,,,,,,,,,,,,,,,,,
,,,,,,,,,,,,,,55b9a9b0fdf99b6906d2aba4,65,2021-03-25_02h12.05.408,CombinedMST_OA,2020.2.10,Win32,60,,,,,,,,,,,,,,,,,SoundMST/Bagpipe.wav,1,1,OLD,B,,,1,1,0.545,0,71,71,71,1,,,,,,,,,,,,,,,,,,,,,,,,,,,,,,,,,,,,,,,,,,,,,,,,,,,,,,,,,,,,,,,,,,,,,,,,,,,,,,,,,
,,,,,,,,,,,,,,55b9a9b0fdf99b6906d2aba4,65,2021-03-25_02h12.05.408,CombinedMST_OA,2020.2.10,Win32,60,,,,,,,,,,,,,,,,,SoundMST/Hammer_A.wav,2,3,NEW,B,,,1,0,0.815,0,72,72,72,1,,,,,,,,,,,,,,,,,,,,,,,,,,,,,,,,,,,,,,,,,,,,,,,,,,,,,,,,,,,,,,,,,,,,,,,,,,,,,,,,,
,,,,,,,,,,,,,,55b9a9b0fdf99b6906d2aba4,65,2021-03-25_02h12.05.408,CombinedMST_OA,2020.2.10,Win32,60,,,,,,,,,,,,,,,,,SoundMST/Helicopter_A.wav,1,1,OLD,B,,,1,1,0.901,0,73,73,73,1,,,,,,,,,,,,,,,,,,,,,,,,,,,,,,,,,,,,,,,,,,,,,,,,,,,,,,,,,,,,,,,,,,,,,,,,,,,,,,,,,
,,,,,,,,,,,,,,55b9a9b0fdf99b6906d2aba4,65,2021-03-25_02h12.05.408,CombinedMST_OA,2020.2.10,Win32,60,,,,,,,,,,,,,,,,,SoundMST/Camera.wav,2,3,NEW,B,,,2,1,1.786,0,74,74,74,1,,,,,,,,,,,,,,,,,,,,,,,,,,,,,,,,,,,,,,,,,,,,,,,,,,,,,,,,,,,,,,,,,,,,,,,,,,,,,,,,,
,,,,,,,,,,,,,,55b9a9b0fdf99b6906d2aba4,65,2021-03-25_02h12.05.408,CombinedMST_OA,2020.2.10,Win32,60,,,,,,,,,,,,,,,,,SoundMST/Steam.wav,2,3,NEW,B,,,2,1,0.792,0,75,75,75,1,,,,,,,,,,,,,,,,,,,,,,,,,,,,,,,,,,,,,,,,,,,,,,,,,,,,,,,,,,,,,,,,,,,,,,,,,,,,,,,,,
,,,,,,,,,,,,,,55b9a9b0fdf99b6906d2aba4,65,2021-03-25_02h12.05.408,CombinedMST_OA,2020.2.10,Win32,60,,,,,,,,,,,,,,,,,SoundMST/Horse.wav,1,1,OLD,B,,,1,1,0.741,0,76,76,76,1,,,,,,,,,,,,,,,,,,,,,,,,,,,,,,,,,,,,,,,,,,,,,,,,,,,,,,,,,,,,,,,,,,,,,,,,,,,,,,,,,
,,,,,,,,,,,,,,55b9a9b0fdf99b6906d2aba4,65,2021-03-25_02h12.05.408,CombinedMST_OA,2020.2.10,Win32,60,,,,,,,,,,,,,,,,,SoundMST/Elephant_C.wav,2,3,NEW,B,,,2,1,0.359,0,77,77,77,1,,,,,,,,,,,,,,,,,,,,,,,,,,,,,,,,,,,,,,,,,,,,,,,,,,,,,,,,,,,,,,,,,,,,,,,,,,,,,,,,,
,,,,,,,,,,,,,,55b9a9b0fdf99b6906d2aba4,65,2021-03-25_02h12.05.408,CombinedMST_OA,2020.2.10,Win32,60,,,,,,,,,,,,,,,,,SoundMST/Printer.wav,1,1,OLD,B,,,1,1,0.779,0,78,78,78,1,,,,,,,,,,,,,,,,,,,,,,,,,,,,,,,,,,,,,,,,,,,,,,,,,,,,,,,,,,,,,,,,,,,,,,,,,,,,,,,,,
,,,,,,,,,,,,,,55b9a9b0fdf99b6906d2aba4,65,2021-03-25_02h12.05.408,CombinedMST_OA,2020.2.10,Win32,60,,,,,,,,,,,,,,,,,SoundMST/Crow_A.wav,2,2,SIMILAR,B,,,2,1,0.722,0,79,79,79,1,,,,,,,,,,,,,,,,,,,,,,,,,,,,,,,,,,,,,,,,,,,,,,,,,,,,,,,,,,,,,,,,,,,,,,,,,,,,,,,,,
,,,,,,,,,,,,,,55b9a9b0fdf99b6906d2aba4,65,2021-03-25_02h12.05.408,CombinedMST_OA,2020.2.10,Win32,60,,,,,,,,,,,,,,,,,SoundMST/Bubbles_A.wav,2,3,NEW,B,,,1,0,1.243,0,80,80,80,1,,,,,,,,,,,,,,,,,,,,,,,,,,,,,,,,,,,,,,,,,,,,,,,,,,,,,,,,,,,,,,,,,,,,,,,,,,,,,,,,,
,,,,,,,,,,,,,,55b9a9b0fdf99b6906d2aba4,65,2021-03-25_02h12.05.408,CombinedMST_OA,2020.2.10,Win32,60,,,,,,,,,,,,,,,,,SoundMST/Chomp_C.wav,2,2,SIMILAR,B,,,1,0,1.106,0,81,81,81,1,,,,,,,,,,,,,,,,,,,,,,,,,,,,,,,,,,,,,,,,,,,,,,,,,,,,,,,,,,,,,,,,,,,,,,,,,,,,,,,,,
,,,,,,,,,,,,,,55b9a9b0fdf99b6906d2aba4,65,2021-03-25_02h12.05.408,CombinedMST_OA,2020.2.10,Win32,60,,,,,,,,,,,,,,,,,SoundMST/Airhorn.wav,2,3,NEW,B,,,2,1,0.68,0,82,82,82,1,,,,,,,,,,,,,,,,,,,,,,,,,,,,,,,,,,,,,,,,,,,,,,,,,,,,,,,,,,,,,,,,,,,,,,,,,,,,,,,,,
,,,,,,,,,,,,,,55b9a9b0fdf99b6906d2aba4,65,2021-03-25_02h12.05.408,CombinedMST_OA,2020.2.10,Win32,60,,,,,,,,,,,,,,,,,SoundMST/Writing_A.wav,2,3,NEW,B,,,2,1,1.504,0,83,83,83,1,,,,,,,,,,,,,,,,,,,,,,,,,,,,,,,,,,,,,,,,,,,,,,,,,,,,,,,,,,,,,,,,,,,,,,,,,,,,,,,,,
,,,,,,,,,,,,,,55b9a9b0fdf99b6906d2aba4,65,2021-03-25_02h12.05.408,CombinedMST_OA,2020.2.10,Win32,60,,,,,,,,,,,,,,,,,SoundMST/Cuckoo_A.wav,2,3,NEW,B,,,2,1,0.691,0,84,84,84,1,,,,,,,,,,,,,,,,,,,,,,,,,,,,,,,,,,,,,,,,,,,,,,,,,,,,,,,,,,,,,,,,,,,,,,,,,,,,,,,,,
,,,,,,,,,,,,,,55b9a9b0fdf99b6906d2aba4,65,2021-03-25_02h12.05.408,CombinedMST_OA,2020.2.10,Win32,60,,,,,,,,,,,,,,,,,SoundMST/IceDrop.wav,2,3,NEW,B,,,1,0,0.904,0,85,85,85,1,,,,,,,,,,,,,,,,,,,,,,,,,,,,,,,,,,,,,,,,,,,,,,,,,,,,,,,,,,,,,,,,,,,,,,,,,,,,,,,,,
,,,,,,,,,,,,,,55b9a9b0fdf99b6906d2aba4,65,2021-03-25_02h12.05.408,CombinedMST_OA,2020.2.10,Win32,60,,,,,,,,,,,,,,,,,SoundMST/CarStart_D.wav,2,2,SIMILAR,B,,,2,1,0.87,0,86,86,86,1,,,,,,,,,,,,,,,,,,,,,,,,,,,,,,,,,,,,,,,,,,,,,,,,,,,,,,,,,,,,,,,,,,,,,,,,,,,,,,,,,
,,,,,,,,,,,,,,55b9a9b0fdf99b6906d2aba4,65,2021-03-25_02h12.05.408,CombinedMST_OA,2020.2.10,Win32,60,,,,,,,,,,,,,,,,,SoundMST/Baby_F.wav,2,3,NEW,B,,,2,1,1.705,0,87,87,87,1,,,,,,,,,,,,,,,,,,,,,,,,,,,,,,,,,,,,,,,,,,,,,,,,,,,,,,,,,,,,,,,,,,,,,,,,,,,,,,,,,
,,,,,,,,,,,,,,55b9a9b0fdf99b6906d2aba4,65,2021-03-25_02h12.05.408,CombinedMST_OA,2020.2.10,Win32,60,,,,,,,,,,,,,,,,,SoundMST/Puff_A.wav,2,3,NEW,B,,,2,1,1.043,0,88,88,88,1,,,,,,,,,,,,,,,,,,,,,,,,,,,,,,,,,,,,,,,,,,,,,,,,,,,,,,,,,,,,,,,,,,,,,,,,,,,,,,,,,
,,,,,,,,,,,,,,55b9a9b0fdf99b6906d2aba4,65,2021-03-25_02h12.05.408,CombinedMST_OA,2020.2.10,Win32,60,,,,,,,,,,,,,,,,,SoundMST/Droplet_B.wav,1,1,OLD,B,,,1,1,0.99,0,89,89,89,1,,,,,,,,,,,,,,,,,,,,,,,,,,,,,,,,,,,,,,,,,,,,,,,,,,,,,,,,,,,,,,,,,,,,,,,,,,,,,,,,,
,,,,,,,,,,,,,,55b9a9b0fdf99b6906d2aba4,65,2021-03-25_02h12.05.408,CombinedMST_OA,2020.2.10,Win32,60,,,,,,,,,,,,,,,,,SoundMST/Guitar_B.wav,1,1,OLD,B,,,1,1,0.666,0,90,90,90,1,,,,,,,,,,,,,,,,,,,,,,,,,,,,,,,,,,,,,,,,,,,,,,,,,,,,,,,,,,,,,,,,,,,,,,,,,,,,,,,,,
,,,,,,,,,,,,,,55b9a9b0fdf99b6906d2aba4,65,2021-03-25_02h12.05.408,CombinedMST_OA,2020.2.10,Win32,60,,,,,,,,,,,,,,,,,SoundMST/PaperRip.wav,2,3,NEW,B,,,2,1,0.652,0,91,91,91,1,,,,,,,,,,,,,,,,,,,,,,,,,,,,,,,,,,,,,,,,,,,,,,,,,,,,,,,,,,,,,,,,,,,,,,,,,,,,,,,,,
,,,,,,,,,,,,,,55b9a9b0fdf99b6906d2aba4,65,2021-03-25_02h12.05.408,CombinedMST_OA,2020.2.10,Win32,60,,,,,,,,,,,,,,,,,SoundMST/Mosquito_B.wav,1,1,OLD,B,,,1,1,0.664,0,92,92,92,1,,,,,,,,,,,,,,,,,,,,,,,,,,,,,,,,,,,,,,,,,,,,,,,,,,,,,,,,,,,,,,,,,,,,,,,,,,,,,,,,,
,,,,,,,,,,,,,,55b9a9b0fdf99b6906d2aba4,65,2021-03-25_02h12.05.408,CombinedMST_OA,2020.2.10,Win32,60,,,,,,,,,,,,,,,,,SoundMST/Trumpet_B.wav,2,3,NEW,B,,,2,1,0.6,0,93,93,93,1,,,,,,,,,,,,,,,,,,,,,,,,,,,,,,,,,,,,,,,,,,,,,,,,,,,,,,,,,,,,,,,,,,,,,,,,,,,,,,,,,
,,,,,,,,,,,,,,55b9a9b0fdf99b6906d2aba4,65,2021-03-25_02h12.05.408,CombinedMST_OA,2020.2.10,Win32,60,,,,,,,,,,,,,,,,,SoundMST/Bullfrog.wav,2,3,NEW,B,,,2,1,0.649,0,94,94,94,1,,,,,,,,,,,,,,,,,,,,,,,,,,,,,,,,,,,,,,,,,,,,,,,,,,,,,,,,,,,,,,,,,,,,,,,,,,,,,,,,,
,,,,,,,,,,,,,,55b9a9b0fdf99b6906d2aba4,65,2021-03-25_02h12.05.408,CombinedMST_OA,2020.2.10,Win32,60,,,,,,,,,,,,,,,,,SoundMST/Elephant_A.wav,2,2,SIMILAR,B,,,1,0,0.629,0,95,95,95,1,,,,,,,,,,,,,,,,,,,,,,,,,,,,,,,,,,,,,,,,,,,,,,,,,,,,,,,,,,,,,,,,,,,,,,,,,,,,,,,,,
,,,,,,,,,,,,,,55b9a9b0fdf99b6906d2aba4,65,2021-03-25_02h12.05.408,CombinedMST_OA,2020.2.10,Win32,60,,,,,,,,,,,,,,,,,SoundMST/Sneeze_B.wav,2,3,NEW,B,,,1,0,1.582,0,96,96,96,1,,,,,,,,,,,,,,,,,,,,,,,,,,,,,,,,,,,,,,,,,,,,,,,,,,,,,,,,,,,,,,,,,,,,,,,,,,,,,,,,,
,,,,,,,,,,,,,,55b9a9b0fdf99b6906d2aba4,65,2021-03-25_02h12.05.408,CombinedMST_OA,2020.2.10,Win32,60,,,,,,,,,,,,,,,,,SoundMST/Camera.wav,1,1,OLD,B,,,1,1,0.938,0,97,97,97,1,,,,,,,,,,,,,,,,,,,,,,,,,,,,,,,,,,,,,,,,,,,,,,,,,,,,,,,,,,,,,,,,,,,,,,,,,,,,,,,,,
,,,,,,,,,,,,,,55b9a9b0fdf99b6906d2aba4,65,2021-03-25_02h12.05.408,CombinedMST_OA,2020.2.10,Win32,60,,,,,,,,,,,,,,,,,SoundMST/Cat_A.wav,2,3,NEW,B,,,2,1,0.567,0,98,98,98,1,,,,,,,,,,,,,,,,,,,,,,,,,,,,,,,,,,,,,,,,,,,,,,,,,,,,,,,,,,,,,,,,,,,,,,,,,,,,,,,,,
,,,,,,,,,,,,,,55b9a9b0fdf99b6906d2aba4,65,2021-03-25_02h12.05.408,CombinedMST_OA,2020.2.10,Win32,60,,,,,,,,,,,,,,,,,SoundMST/Steam.wav,1,1,OLD,B,,,1,1,0.505,0,99,99,99,1,,,,,,,,,,,,,,,,,,,,,,,,,,,,,,,,,,,,,,,,,,,,,,,,,,,,,,,,,,,,,,,,,,,,,,,,,,,,,,,,,
,,,,,,,,,,,,,,55b9a9b0fdf99b6906d2aba4,65,2021-03-25_02h12.05.408,CombinedMST_OA,2020.2.10,Win32,60,,,,,,,,,,,,,,,,,SoundMST/Writing_C.wav,2,2,SIMILAR,B,,,1,0,0.86,0,100,100,100,1,,,,,,,,,,,,,,,,,,,,,,,,,,,,,,,,,,,,,,,,,,,,,,,,,,,,,,,,,,,,,,,,,,,,,,,,,,,,,,,,,
,,,,,,,,,,,,,,55b9a9b0fdf99b6906d2aba4,65,2021-03-25_02h12.05.408,CombinedMST_OA,2020.2.10,Win32,60,,,,,,,,,,,,,,,,,SoundMST/IceDrop.wav,1,1,OLD,B,,,1,1,0.648,0,101,101,101,1,,,,,,,,,,,,,,,,,,,,,,,,,,,,,,,,,,,,,,,,,,,,,,,,,,,,,,,,,,,,,,,,,,,,,,,,,,,,,,,,,
,,,,,,,,,,,,,,55b9a9b0fdf99b6906d2aba4,65,2021-03-25_02h12.05.408,CombinedMST_OA,2020.2.10,Win32,60,,,,,,,,,,,,,,,,,SoundMST/Slurp.wav,2,3,NEW,B,,,2,1,0.678,0,102,102,102,1,,,,,,,,,,,,,,,,,,,,,,,,,,,,,,,,,,,,,,,,,,,,,,,,,,,,,,,,,,,,,,,,,,,,,,,,,,,,,,,,,
,,,,,,,,,,,,,,55b9a9b0fdf99b6906d2aba4,65,2021-03-25_02h12.05.408,CombinedMST_OA,2020.2.10,Win32,60,,,,,,,,,,,,,,,,,SoundMST/Baby_E.wav,2,2,SIMILAR,B,,,1,0,1.082,0,103,103,103,1,,,,,,,,,,,,,,,,,,,,,,,,,,,,,,,,,,,,,,,,,,,,,,,,,,,,,,,,,,,,,,,,,,,,,,,,,,,,,,,,,
,,,,,,,,,,,,,,55b9a9b0fdf99b6906d2aba4,65,2021-03-25_02h12.05.408,CombinedMST_OA,2020.2.10,Win32,60,,,,,,,,,,,,,,,,,SoundMST/DialTone.wav,2,3,NEW,B,,,2,1,0.476,0,104,104,104,1,,,,,,,,,,,,,,,,,,,,,,,,,,,,,,,,,,,,,,,,,,,,,,,,,,,,,,,,,,,,,,,,,,,,,,,,,,,,,,,,,
,,,,,,,,,,,,,,55b9a9b0fdf99b6906d2aba4,65,2021-03-25_02h12.05.408,CombinedMST_OA,2020.2.10,Win32,60,,,,,,,,,,,,,,,,,SoundMST/Puff_A.wav,1,1,OLD,B,,,1,1,0.84,0,105,105,105,1,,,,,,,,,,,,,,,,,,,,,,,,,,,,,,,,,,,,,,,,,,,,,,,,,,,,,,,,,,,,,,,,,,,,,,,,,,,,,,,,,
,,,,,,,,,,,,,,55b9a9b0fdf99b6906d2aba4,65,2021-03-25_02h12.05.408,CombinedMST_OA,2020.2.10,Win32,60,,,,,,,,,,,,,,,,,SoundMST/Buzz.wav,2,3,NEW,B,,,2,1,0.741,0,106,106,106,1,,,,,,,,,,,,,,,,,,,,,,,,,,,,,,,,,,,,,,,,,,,,,,,,,,,,,,,,,,,,,,,,,,,,,,,,,,,,,,,,,
,,,,,,,,,,,,,,55b9a9b0fdf99b6906d2aba4,65,2021-03-25_02h12.05.408,CombinedMST_OA,2020.2.10,Win32,60,,,,,,,,,,,,,,,,,SoundMST/Airhorn.wav,1,1,OLD,B,,,1,1,1.132,0,107,107,107,1,,,,,,,,,,,,,,,,,,,,,,,,,,,,,,,,,,,,,,,,,,,,,,,,,,,,,,,,,,,,,,,,,,,,,,,,,,,,,,,,,
,,,,,,,,,,,,,,55b9a9b0fdf99b6906d2aba4,65,2021-03-25_02h12.05.408,CombinedMST_OA,2020.2.10,Win32,60,,,,,,,,,,,,,,,,,SoundMST/Sleighbells_B.wav,2,3,NEW,B,,,2,1,0.594,0,108,108,108,1,,,,,,,,,,,,,,,,,,,,,,,,,,,,,,,,,,,,,,,,,,,,,,,,,,,,,,,,,,,,,,,,,,,,,,,,,,,,,,,,,
,,,,,,,,,,,,,,55b9a9b0fdf99b6906d2aba4,65,2021-03-25_02h12.05.408,CombinedMST_OA,2020.2.10,Win32,60,,,,,,,,,,,,,,,,,SoundMST/Cuckoo_A.wav,1,1,OLD,B,,,1,1,0.556,0,109,109,109,1,,,,,,,,,,,,,,,,,,,,,,,,,,,,,,,,,,,,,,,,,,,,,,,,,,,,,,,,,,,,,,,,,,,,,,,,,,,,,,,,,
,,,,,,,,,,,,,,55b9a9b0fdf99b6906d2aba4,65,2021-03-25_02h12.05.408,CombinedMST_OA,2020.2.10,Win32,60,,,,,,,,,,,,,,,,,SoundMST/Wind_B.wav,2,3,NEW,B,,,2,1,0.52,0,110,110,110,1,,,,,,,,,,,,,,,,,,,,,,,,,,,,,,,,,,,,,,,,,,,,,,,,,,,,,,,,,,,,,,,,,,,,,,,,,,,,,,,,,
,,,,,,,,,,,,,,55b9a9b0fdf99b6906d2aba4,65,2021-03-25_02h12.05.408,CombinedMST_OA,2020.2.10,Win32,60,,,,,,,,,,,,,,,,,SoundMST/Typing.wav,2,3,NEW,B,,,2,1,0.795,0,111,111,111,1,,,,,,,,,,,,,,,,,,,,,,,,,,,,,,,,,,,,,,,,,,,,,,,,,,,,,,,,,,,,,,,,,,,,,,,,,,,,,,,,,
,,,,,,,,,,,,,,55b9a9b0fdf99b6906d2aba4,65,2021-03-25_02h12.05.408,CombinedMST_OA,2020.2.10,Win32,60,,,,,,,,,,,,,,,,,SoundMST/Bubbles_B.wav,2,2,SIMILAR,B,,,1,0,0.564,0,112,112,112,1,,,,,,,,,,,,,,,,,,,,,,,,,,,,,,,,,,,,,,,,,,,,,,,,,,,,,,,,,,,,,,,,,,,,,,,,,,,,,,,,,
,,,,,,,,,,,,,,55b9a9b0fdf99b6906d2aba4,65,2021-03-25_02h12.05.408,CombinedMST_OA,2020.2.10,Win32,60,,,,,,,,,,,,,,,,,SoundMST/Duck_A.wav,2,3,NEW,B,,,2,1,0.603,0,113,113,113,1,,,,,,,,,,,,,,,,,,,,,,,,,,,,,,,,,,,,,,,,,,,,,,,,,,,,,,,,,,,,,,,,,,,,,,,,,,,,,,,,,
,,,,,,,,,,,,,,55b9a9b0fdf99b6906d2aba4,65,2021-03-25_02h12.05.408,CombinedMST_OA,2020.2.10,Win32,60,,,,,,,,,,,,,,,,,SoundMST/Trumpet_B.wav,1,1,OLD,B,,,1,1,0.625,0,114,114,114,1,,,,,,,,,,,,,,,,,,,,,,,,,,,,,,,,,,,,,,,,,,,,,,,,,,,,,,,,,,,,,,,,,,,,,,,,,,,,,,,,,
,,,,,,,,,,,,,,55b9a9b0fdf99b6906d2aba4,65,2021-03-25_02h12.05.408,CombinedMST_OA,2020.2.10,Win32,60,,,,,,,,,,,,,,,,,SoundMST/PaperRip.wav,1,1,OLD,B,,,1,1,0.802,0,115,115,115,1,,,,,,,,,,,,,,,,,,,,,,,,,,,,,,,,,,,,,,,,,,,,,,,,,,,,,,,,,,,,,,,,,,,,,,,,,,,,,,,,,
,,,,,,,,,,,,,,55b9a9b0fdf99b6906d2aba4,65,2021-03-25_02h12.05.408,CombinedMST_OA,2020.2.10,Win32,60,,,,,,,,,,,,,,,,,SoundMST/Sneeze_B.wav,1,1,OLD,B,,,1,1,0.774,0,116,116,116,1,,,,,,,,,,,,,,,,,,,,,,,,,,,,,,,,,,,,,,,,,,,,,,,,,,,,,,,,,,,,,,,,,,,,,,,,,,,,,,,,,
,,,,,,,,,,,,,,55b9a9b0fdf99b6906d2aba4,65,2021-03-25_02h12.05.408,CombinedMST_OA,2020.2.10,Win32,60,,,,,,,,,,,,,,,,,SoundMST/Pour_B.wav,2,3,NEW,B,,,1,0,0.559,0,117,117,117,1,,,,,,,,,,,,,,,,,,,,,,,,,,,,,,,,,,,,,,,,,,,,,,,,,,,,,,,,,,,,,,,,,,,,,,,,,,,,,,,,,
,,,,,,,,,,,,,,55b9a9b0fdf99b6906d2aba4,65,2021-03-25_02h12.05.408,CombinedMST_OA,2020.2.10,Win32,60,,,,,,,,,,,,,,,,,SoundMST/Cat_A.wav,1,1,OLD,B,,,1,1,0.663,0,118,118,118,1,,,,,,,,,,,,,,,,,,,,,,,,,,,,,,,,,,,,,,,,,,,,,,,,,,,,,,,,,,,,,,,,,,,,,,,,,,,,,,,,,
,,,,,,,,,,,,,,55b9a9b0fdf99b6906d2aba4,65,2021-03-25_02h12.05.408,CombinedMST_OA,2020.2.10,Win32,60,,,,,,,,,,,,,,,,,SoundMST/Slurp.wav,1,1,OLD,B,,,1,1,1.219,0,119,119,119,1,,,,,,,,,,,,,,,,,,,,,,,,,,,,,,,,,,,,,,,,,,,,,,,,,,,,,,,,,,,,,,,,,,,,,,,,,,,,,,,,,
,,,,,,,,,,,,,,55b9a9b0fdf99b6906d2aba4,65,2021-03-25_02h12.05.408,CombinedMST_OA,2020.2.10,Win32,60,,,,,,,,,,,,,,,,,SoundMST/Bullfrog.wav,1,1,OLD,B,,,1,1,0.805,0,120,120,120,1,,,,,,,,,,,,,,,,,,,,,,,,,,,,,,,,,,,,,,,,,,,,,,,,,,,,,,,,,,,,,,,,,,,,,,,,,,,,,,,,,
,,,,,,,,,,,,,,55b9a9b0fdf99b6906d2aba4,65,2021-03-25_02h12.05.408,CombinedMST_OA,2020.2.10,Win32,60,,,,,,,,,,,,,,,,,SoundMST/Wind_B.wav,1,1,OLD,B,,,1,1,0.708,0,121,121,121,1,,,,,,,,,,,,,,,,,,,,,,,,,,,,,,,,,,,,,,,,,,,,,,,,,,,,,,,,,,,,,,,,,,,,,,,,,,,,,,,,,
,,,,,,,,,,,,,,55b9a9b0fdf99b6906d2aba4,65,2021-03-25_02h12.05.408,CombinedMST_OA,2020.2.10,Win32,60,,,,,,,,,,,,,,,,,SoundMST/Duck_B.wav,2,2,SIMILAR,B,,,1,0,0.704,0,122,122,122,1,,,,,,,,,,,,,,,,,,,,,,,,,,,,,,,,,,,,,,,,,,,,,,,,,,,,,,,,,,,,,,,,,,,,,,,,,,,,,,,,,
,,,,,,,,,,,,,,55b9a9b0fdf99b6906d2aba4,65,2021-03-25_02h12.05.408,CombinedMST_OA,2020.2.10,Win32,60,,,,,,,,,,,,,,,,,SoundMST/DialTone.wav,1,1,OLD,B,,,1,1,0.606,0,123,123,123,1,,,,,,,,,,,,,,,,,,,,,,,,,,,,,,,,,,,,,,,,,,,,,,,,,,,,,,,,,,,,,,,,,,,,,,,,,,,,,,,,,
,,,,,,,,,,,,,,55b9a9b0fdf99b6906d2aba4,65,2021-03-25_02h12.05.408,CombinedMST_OA,2020.2.10,Win32,60,,,,,,,,,,,,,,,,,SoundMST/Buzz.wav,1,1,OLD,B,,,1,1,0.694,0,124,124,124,1,,,,,,,,,,,,,,,,,,,,,,,,,,,,,,,,,,,,,,,,,,,,,,,,,,,,,,,,,,,,,,,,,,,,,,,,,,,,,,,,,
,,,,,,,,,,,,,,55b9a9b0fdf99b6906d2aba4,65,2021-03-25_02h12.05.408,CombinedMST_OA,2020.2.10,Win32,60,,,,,,,,,,,,,,,,,SoundMST/Pour_C.wav,2,2,SIMILAR,B,,,1,0,0.625,0,125,125,125,1,,,,,,,,,,,,,,,,,,,,,,,,,,,,,,,,,,,,,,,,,,,,,,,,,,,,,,,,,,,,,,,,,,,,,,,,,,,,,,,,,
,,,,,,,,,,,,,,55b9a9b0fdf99b6906d2aba4,65,2021-03-25_02h12.05.408,CombinedMST_OA,2020.2.10,Win32,60,,,,,,,,,,,,,,,,,SoundMST/Typing.wav,1,1,OLD,B,,,1,1,0.712,0,126,126,126,1,,,,,,,,,,,,,,,,,,,,,,,,,,,,,,,,,,,,,,,,,,,,,,,,,,,,,,,,,,,,,,,,,,,,,,,,,,,,,,,,,
,,,,,,,,,,,,,,55b9a9b0fdf99b6906d2aba4,65,2021-03-25_02h12.05.408,CombinedMST_OA,2020.2.10,Win32,60,,,,,,,,,,,,,,,,,SoundMST/Sleighbells_B.wav,1,1,OLD,B,,,2,0,0.744,0,127,127,127,1,,,,,,,,,,,,,,,,,,,,,,,,,,,,,,,,,,,,,,,,,,,,,,,,,,,,,,,,,,,,,,,,,,,,,,,,,,,,,,,,,
,,,,,,,,,,,,,,55b9a9b0fdf99b6906d2aba4,65,2021-03-25_02h12.05.408,CombinedMST_OA,2020.2.10,Win32,60,,,,,,,,,,,,,,,,,,,,,,,,,,,,,,,,return,20.53,PASTA,0,0,0,0,1,,,,,,,,,,,,,,,,,,,,,,,,,,,,,,,,,,,,,,,,,,,,,,,,,,,,,,,,,,,,,,,,,,,,,,,,,
,,,,,,,,,,,,,,55b9a9b0fdf99b6906d2aba4,65,2021-03-25_02h12.05.408,CombinedMST_OA,2020.2.10,Win32,60,,,,,,,,,,,,,,,,,,,,,,,,,,,,,,,,,,,,,,,,0,0,0,1,1,0,1,,,,,,,,,,,,,,,,,,,,,,,,,,,,,,,,,,,,,,,,,,,,,,,,,,,,,,,,,,,,,,,,,,
,,,,,,,,,,,,,2,55b9a9b0fdf99b6906d2aba4,65,2021-03-25_02h12.05.408,CombinedMST_OA,2020.2.10,Win32,60,space,27.592,,,,,space,6.2,,,,,,,,,,,,,,,,,,,,,,,,,,,,,,,,,,,,,,,space,20.841,space,7.465,2,1,2.086,0,0,0,0,1,Training/FO_YI_LAY.wav,NEW,,,,,,,,,,,,,,,,,,,,,,,,,,,,,,,,,,,,,,,,,,,,,,,,,,,,
,,,,,,,,,,,,,1,55b9a9b0fdf99b6906d2aba4,65,2021-03-25_02h12.05.408,CombinedMST_OA,2020.2.10,Win32,60,,,,,,,,,,,,,,,,,,,,,,,,,,,,,,,,,,,,,,,,,,,,,,,,,,,1,1,0.721,0,1,1,1,1,Training/FO_YI_LAY.wav,OLD,,,,,,,,,,,,,,,,,,,,,,,,,,,,,,,,,,,,,,,,,,,,,,,,,,,,
,,,,,,,,,,,,,2,55b9a9b0fdf99b6906d2aba4,65,2021-03-25_02h12.05.408,CombinedMST_OA,2020.2.10,Win32,60,,,,,,,,,,,,,,,,,,,,,,,,,,,,,,,,,,,,,,,,,,,,,,,,,,,2,1,0.643,0,2,2,2,1,Training/YO_BU_JAY.wav,NEW,,,,,,,,,,,,,,,,,,,,,,,,,,,,,,,,,,,,,,,,,,,,,,,,,,,,
,,,,,,,,,,,,,2,55b9a9b0fdf99b6906d2aba4,65,2021-03-25_02h12.05.408,CombinedMST_OA,2020.2.10,Win32,60,,,,,,,,,,,,,,,,,,,,,,,,,,,,,,,,,,,,,,,,,,,,,,,,,,,2,1,0.967,0,3,3,3,1,Training/JAY_YO_BU.wav,SIMILAR,,,,,,,,,,,,,,,,,,,,,,,,,,,,,,,,,,,,,,,,,,,,,,,,,,,,
,,,,,,,,,,,,,1,55b9a9b0fdf99b6906d2aba4,65,2021-03-25_02h12.05.408,CombinedMST_OA,2020.2.10,Win32,60,,,,,,,,,,,,,,,,,,,,,,,,,,,,,,,,,,,,,,,,,,,,,,,,,,,1,1,1.099,0,4,4,4,1,Training/FO_YI_LAY.wav,OLD,,,,,,,,,,,,,,,,,,,,,,,,,,,,,,,,,,,,,,,,,,,,,,,,,,,,
,,,,,,,,,,,,TestWords/LU_HAI_BO.wav,,55b9a9b0fdf99b6906d2aba4,65,2021-03-25_02h12.05.408,CombinedMST_OA,2020.2.10,Win32,60,,,,,,,,,,,,,,,,,,,,,,,,,,,,,,,,,,,,,,,,,,,,,,,,,,,,,,,,,,,,,space,13.637,2,1,0.924,0,0,0,0,1,2,NEW,NEW,B,,,,,,,,,,,,,,,,,,,,,,,,,,,,,,,,,,,,,,
,,,,,,,,,,,,TestWords/CHU_LA_PAY.wav,,55b9a9b0fdf99b6906d2aba4,65,2021-03-25_02h12.05.408,CombinedMST_OA,2020.2.10,Win32,60,,,,,,,,,,,,,,,,,,,,,,,,,,,,,,,,,,,,,,,,,,,,,,,,,,,,,,,,,,,,,,,2,1,0.815,0,1,1,1,1,2,NEW,NEW,B,,,,,,,,,,,,,,,,,,,,,,,,,,,,,,,,,,,,,,
,,,,,,,,,,,,TestWords/RAY_PA_TI.wav,,55b9a9b0fdf99b6906d2aba4,65,2021-03-25_02h12.05.408,CombinedMST_OA,2020.2.10,Win32,60,,,,,,,,,,,,,,,,,,,,,,,,,,,,,,,,,,,,,,,,,,,,,,,,,,,,,,,,,,,,,,,2,1,0.629,0,2,2,2,1,2,NEW,NEW,B,,,,,,,,,,,,,,,,,,,,,,,,,,,,,,,,,,,,,,
,,,,,,,,,,,,TestWords/DA_CHU_VAI.wav,,55b9a9b0fdf99b6906d2aba4,65,2021-03-25_02h12.05.408,CombinedMST_OA,2020.2.10,Win32,60,,,,,,,,,,,,,,,,,,,,,,,,,,,,,,,,,,,,,,,,,,,,,,,,,,,,,,,,,,,,,,,2,1,0.705,0,3,3,3,1,2,NEW,NEW,B,,,,,,,,,,,,,,,,,,,,,,,,,,,,,,,,,,,,,,
,,,,,,,,,,,,TestWords/DAY_PU_MO.wav,,55b9a9b0fdf99b6906d2aba4,65,2021-03-25_02h12.05.408,CombinedMST_OA,2020.2.10,Win32,60,,,,,,,,,,,,,,,,,,,,,,,,,,,,,,,,,,,,,,,,,,,,,,,,,,,,,,,,,,,,,,,1,0,0.72,0,4,4,4,1,2,NEW,NEW,B,,,,,,,,,,,,,,,,,,,,,,,,,,,,,,,,,,,,,,
,,,,,,,,,,,,TestWords/DAI_RU_CHI.wav,,55b9a9b0fdf99b6906d2aba4,65,2021-03-25_02h12.05.408,CombinedMST_OA,2020.2.10,Win32,60,,,,,,,,,,,,,,,,,,,,,,,,,,,,,,,,,,,,,,,,,,,,,,,,,,,,,,,,,,,,,,,2,1,0.95,0,5,5,5,1,2,NEW,NEW,B,,,,,,,,,,,,,,,,,,,,,,,,,,,,,,,,,,,,,,
,,,,,,,,,,,,TestWords/RAI_ZO_FU.wav,,55b9a9b0fdf99b6906d2aba4,65,2021-03-25_02h12.05.408,CombinedMST_OA,2020.2.10,Win32,60,,,,,,,,,,,,,,,,,,,,,,,,,,,,,,,,,,,,,,,,,,,,,,,,,,,,,,,,,,,,,,,2,1,0.797,0,6,6,6,1,2,NEW,NEW,B,,,,,,,,,,,,,,,,,,,,,,,,,,,,,,,,,,,,,,
,,,,,,,,,,,,TestWords/HO_NAY_VA.wav,,55b9a9b0fdf99b6906d2aba4,65,2021-03-25_02h12.05.408,CombinedMST_OA,2020.2.10,Win32,60,,,,,,,,,,,,,,,,,,,,,,,,,,,,,,,,,,,,,,,,,,,,,,,,,,,,,,,,,,,,,,,2,1,0.549,0,7,7,7,1,2,NEW,NEW,B,,,,,,,,,,,,,,,,,,,,,,,,,,,,,,,,,,,,,,
,,,,,,,,,,,,TestWords/RAY_PA_TI.wav,,55b9a9b0fdf99b6906d2aba4,65,2021-03-25_02h12.05.408,CombinedMST_OA,2020.2.10,Win32,60,,,,,,,,,,,,,,,,,,,,,,,,,,,,,,,,,,,,,,,,,,,,,,,,,,,,,,,,,,,,,,,2,0,0.655,0,8,8,8,1,1,OLD,OLD,B,,,,,,,,,,,,,,,,,,,,,,,,,,,,,,,,,,,,,,
,,,,,,,,,,,,TestWords/DAY_MO_PU.wav,,55b9a9b0fdf99b6906d2aba4,65,2021-03-25_02h12.05.408,CombinedMST_OA,2020.2.10,Win32,60,,,,,,,,,,,,,,,,,,,,,,,,,,,,,,,,,,,,,,,,,,,,,,,,,,,,,,,,,,,,,,,1,0,0.579,0,9,9,9,1,2,NEW,SIMILAR,B,,,,,,,,,,,,,,,,,,,,,,,,,,,,,,,,,,,,,,
,,,,,,,,,,,,TestWords/TAI_SA_GI.wav,,55b9a9b0fdf99b6906d2aba4,65,2021-03-25_02h12.05.408,CombinedMST_OA,2020.2.10,Win32,60,,,,,,,,,,,,,,,,,,,,,,,,,,,,,,,,,,,,,,,,,,,,,,,,,,,,,,,,,,,,,,,2,1,0.885,0,10,10,10,1,2,NEW,NEW,B,,,,,,,,,,,,,,,,,,,,,,,,,,,,,,,,,,,,,,
,,,,,,,,,,,,TestWords/DAI_RU_CHI.wav,,55b9a9b0fdf99b6906d2aba4,65,2021-03-25_02h12.05.408,CombinedMST_OA,2020.2.10,Win32,60,,,,,,,,,,,,,,,,,,,,,,,,,,,,,,,,,,,,,,,,,,,,,,,,,,,,,,,,,,,,,,,2,0,0.838,0,11,11,11,1,1,OLD,OLD,B,,,,,,,,,,,,,,,,,,,,,,,,,,,,,,,,,,,,,,
,,,,,,,,,,,,TestWords/GA_MU_ZI.wav,,55b9a9b0fdf99b6906d2aba4,65,2021-03-25_02h12.05.408,CombinedMST_OA,2020.2.10,Win32,60,,,,,,,,,,,,,,,,,,,,,,,,,,,,,,,,,,,,,,,,,,,,,,,,,,,,,,,,,,,,,,,2,1,0.563,0,12,12,12,1,2,NEW,NEW,B,,,,,,,,,,,,,,,,,,,,,,,,,,,,,,,,,,,,,,
,,,,,,,,,,,,TestWords/ZO_RAI_FU.wav,,55b9a9b0fdf99b6906d2aba4,65,2021-03-25_02h12.05.408,CombinedMST_OA,2020.2.10,Win32,60,,,,,,,,,,,,,,,,,,,,,,,,,,,,,,,,,,,,,,,,,,,,,,,,,,,,,,,,,,,,,,,1,0,0.575,0,13,13,13,1,2,NEW,SIMILAR,B,,,,,,,,,,,,,,,,,,,,,,,,,,,,,,,,,,,,,,
,,,,,,,,,,,,TestWords/RAY_PA_TI.wav,,55b9a9b0fdf99b6906d2aba4,65,2021-03-25_02h12.05.408,CombinedMST_OA,2020.2.10,Win32,60,,,,,,,,,,,,,,,,,,,,,,,,,,,,,,,,,,,,,,,,,,,,,,,,,,,,,,,,,,,,,,,1,1,0.799,0,14,14,14,1,1,OLD,OLD,B,,,,,,,,,,,,,,,,,,,,,,,,,,,,,,,,,,,,,,
,,,,,,,,,,,,TestWords/FI_GU_CHA.wav,,55b9a9b0fdf99b6906d2aba4,65,2021-03-25_02h12.05.408,CombinedMST_OA,2020.2.10,Win32,60,,,,,,,,,,,,,,,,,,,,,,,,,,,,,,,,,,,,,,,,,,,,,,,,,,,,,,,,,,,,,,,2,1,0.893,0,15,15,15,1,2,NEW,NEW,B,,,,,,,,,,,,,,,,,,,,,,,,,,,,,,,,,,,,,,
,,,,,,,,,,,,TestWords/MO_DAY_PU.wav,,55b9a9b0fdf99b6906d2aba4,65,2021-03-25_02h12.05.408,CombinedMST_OA,2020.2.10,Win32,60,,,,,,,,,,,,,,,,,,,,,,,,,,,,,,,,,,,,,,,,,,,,,,,,,,,,,,,,,,,,,,,1,0,0.87,0,16,16,16,1,2,NEW,SIMILAR,B,,,,,,,,,,,,,,,,,,,,,,,,,,,,,,,,,,,,,,
,,,,,,,,,,,,TestWords/GI_SA_TAI.wav,,55b9a9b0fdf99b6906d2aba4,65,2021-03-25_02h12.05.408,CombinedMST_OA,2020.2.10,Win32,60,,,,,,,,,,,,,,,,,,,,,,,,,,,,,,,,,,,,,,,,,,,,,,,,,,,,,,,,,,,,,,,2,1,0.885,0,17,17,17,1,2,NEW,SIMILAR,B,,,,,,,,,,,,,,,,,,,,,,,,,,,,,,,,,,,,,,
,,,,,,,,,,,,TestWords/FU_RAI_ZO.wav,,55b9a9b0fdf99b6906d2aba4,65,2021-03-25_02h12.05.408,CombinedMST_OA,2020.2.10,Win32,60,,,,,,,,,,,,,,,,,,,,,,,,,,,,,,,,,,,,,,,,,,,,,,,,,,,,,,,,,,,,,,,2,1,0.864,0,18,18,18,1,2,NEW,SIMILAR,B,,,,,,,,,,,,,,,,,,,,,,,,,,,,,,,,,,,,,,
,,,,,,,,,,,,TestWords/DAI_RU_CHI.wav,,55b9a9b0fdf99b6906d2aba4,65,2021-03-25_02h12.05.408,CombinedMST_OA,2020.2.10,Win32,60,,,,,,,,,,,,,,,,,,,,,,,,,,,,,,,,,,,,,,,,,,,,,,,,,,,,,,,,,,,,,,,1,1,0.614,0,19,19,19,1,1,OLD,OLD,B,,,,,,,,,,,,,,,,,,,,,,,,,,,,,,,,,,,,,,
,,,,,,,,,,,,TestWords/KO_SU_FAI.wav,,55b9a9b0fdf99b6906d2aba4,65,2021-03-25_02h12.05.408,CombinedMST_OA,2020.2.10,Win32,60,,,,,,,,,,,,,,,,,,,,,,,,,,,,,,,,,,,,,,,,,,,,,,,,,,,,,,,,,,,,,,,2,1,0.725,0,20,20,20,1,2,NEW,NEW,B,,,,,,,,,,,,,,,,,,,,,,,,,,,,,,,,,,,,,,
,,,,,,,,,,,,TestWords/GA_MU_ZI.wav,,55b9a9b0fdf99b6906d2aba4,65,2021-03-25_02h12.05.408,CombinedMST_OA,2020.2.10,Win32,60,,,,,,,,,,,,,,,,,,,,,,,,,,,,,,,,,,,,,,,,,,,,,,,,,,,,,,,,,,,,,,,2,0,0.647,0,21,21,21,1,1,OLD,OLD,B,,,,,,,,,,,,,,,,,,,,,,,,,,,,,,,,,,,,,,
,,,,,,,,,,,,TestWords/RAY_PA_TI.wav,,55b9a9b0fdf99b6906d2aba4,65,2021-03-25_02h12.05.408,CombinedMST_OA,2020.2.10,Win32,60,,,,,,,,,,,,,,,,,,,,,,,,,,,,,,,,,,,,,,,,,,,,,,,,,,,,,,,,,,,,,,,1,1,0.664,0,22,22,22,1,1,OLD,OLD,B,,,,,,,,,,,,,,,,,,,,,,,,,,,,,,,,,,,,,,
,,,,,,,,,,,,TestWords/PU_DAY_MO.wav,,55b9a9b0fdf99b6906d2aba4,65,2021-03-25_02h12.05.408,CombinedMST_OA,2020.2.10,Win32,60,,,,,,,,,,,,,,,,,,,,,,,,,,,,,,,,,,,,,,,,,,,,,,,,,,,,,,,,,,,,,,,2,1,0.731,0,23,23,23,1,2,NEW,SIMILAR,B,,,,,,,,,,,,,,,,,,,,,,,,,,,,,,,,,,,,,,
,,,,,,,,,,,,TestWords/GI_TAI_SA.wav,,55b9a9b0fdf99b6906d2aba4,65,2021-03-25_02h12.05.408,CombinedMST_OA,2020.2.10,Win32,60,,,,,,,,,,,,,,,,,,,,,,,,,,,,,,,,,,,,,,,,,,,,,,,,,,,,,,,,,,,,,,,1,0,0.771,0,24,24,24,1,2,NEW,SIMILAR,B,,,,,,,,,,,,,,,,,,,,,,,,,,,,,,,,,,,,,,
,,,,,,,,,,,,TestWords/KO_SU_FAI.wav,,55b9a9b0fdf99b6906d2aba4,65,2021-03-25_02h12.05.408,CombinedMST_OA,2020.2.10,Win32,60,,,,,,,,,,,,,,,,,,,,,,,,,,,,,,,,,,,,,,,,,,,,,,,,,,,,,,,,,,,,,,,2,0,0.577,0,25,25,25,1,1,OLD,OLD,B,,,,,,,,,,,,,,,,,,,,,,,,,,,,,,,,,,,,,,
,,,,,,,,,,,,TestWords/FU_ZO_RAI.wav,,55b9a9b0fdf99b6906d2aba4,65,2021-03-25_02h12.05.408,CombinedMST_OA,2020.2.10,Win32,60,,,,,,,,,,,,,,,,,,,,,,,,,,,,,,,,,,,,,,,,,,,,,,,,,,,,,,,,,,,,,,,2,1,0.983,0,26,26,26,1,2,NEW,SIMILAR,B,,,,,,,,,,,,,,,,,,,,,,,,,,,,,,,,,,,,,,
,,,,,,,,,,,,TestWords/DAI_RU_CHI.wav,,55b9a9b0fdf99b6906d2aba4,65,2021-03-25_02h12.05.408,CombinedMST_OA,2020.2.10,Win32,60,,,,,,,,,,,,,,,,,,,,,,,,,,,,,,,,,,,,,,,,,,,,,,,,,,,,,,,,,,,,,,,2,0,0.778,0,27,27,27,1,1,OLD,OLD,B,,,,,,,,,,,,,,,,,,,,,,,,,,,,,,,,,,,,,,
,,,,,,,,,,,,TestWords/RAY_PA_TI.wav,,55b9a9b0fdf99b6906d2aba4,65,2021-03-25_02h12.05.408,CombinedMST_OA,2020.2.10,Win32,60,,,,,,,,,,,,,,,,,,,,,,,,,,,,,,,,,,,,,,,,,,,,,,,,,,,,,,,,,,,,,,,1,1,0.726,0,28,28,28,1,1,OLD,OLD,B,,,,,,,,,,,,,,,,,,,,,,,,,,,,,,,,,,,,,,
,,,,,,,,,,,,TestWords/GA_MU_ZI.wav,,55b9a9b0fdf99b6906d2aba4,65,2021-03-25_02h12.05.408,CombinedMST_OA,2020.2.10,Win32,60,,,,,,,,,,,,,,,,,,,,,,,,,,,,,,,,,,,,,,,,,,,,,,,,,,,,,,,,,,,,,,,2,0,0.478,0,29,29,29,1,1,OLD,OLD,B,,,,,,,,,,,,,,,,,,,,,,,,,,,,,,,,,,,,,,
,,,,,,,,,,,,TestWords/WAI_VU_NA.wav,,55b9a9b0fdf99b6906d2aba4,65,2021-03-25_02h12.05.408,CombinedMST_OA,2020.2.10,Win32,60,,,,,,,,,,,,,,,,,,,,,,,,,,,,,,,,,,,,,,,,,,,,,,,,,,,,,,,,,,,,,,,2,1,0.471,0,30,30,30,1,2,NEW,NEW,B,,,,,,,,,,,,,,,,,,,,,,,,,,,,,,,,,,,,,,
,,,,,,,,,,,,TestWords/SA_TAI_GI.wav,,55b9a9b0fdf99b6906d2aba4,65,2021-03-25_02h12.05.408,CombinedMST_OA,2020.2.10,Win32,60,,,,,,,,,,,,,,,,,,,,,,,,,,,,,,,,,,,,,,,,,,,,,,,,,,,,,,,,,,,,,,,2,1,0.839,0,31,31,31,1,2,NEW,SIMILAR,B,,,,,,,,,,,,,,,,,,,,,,,,,,,,,,,,,,,,,,
,,,,,,,,,,,,TestWords/PU_MO_DAY.wav,,55b9a9b0fdf99b6906d2aba4,65,2021-03-25_02h12.05.408,CombinedMST_OA,2020.2.10,Win32,60,,,,,,,,,,,,,,,,,,,,,,,,,,,,,,,,,,,,,,,,,,,,,,,,,,,,,,,,,,,,,,,1,0,0.717,0,32,32,32,1,2,NEW,SIMILAR,B,,,,,,,,,,,,,,,,,,,,,,,,,,,,,,,,,,,,,,
,,,,,,,,,,,,TestWords/KO_SU_FAI.wav,,55b9a9b0fdf99b6906d2aba4,65,2021-03-25_02h12.05.408,CombinedMST_OA,2020.2.10,Win32,60,,,,,,,,,,,,,,,,,,,,,,,,,,,,,,,,,,,,,,,,,,,,,,,,,,,,,,,,,,,,,,,1,1,0.904,0,33,33,33,1,1,OLD,OLD,B,,,,,,,,,,,,,,,,,,,,,,,,,,,,,,,,,,,,,,
,,,,,,,,,,,,TestWords/RAI_FU_ZO.wav,,55b9a9b0fdf99b6906d2aba4,65,2021-03-25_02h12.05.408,CombinedMST_OA,2020.2.10,Win32,60,,,,,,,,,,,,,,,,,,,,,,,,,,,,,,,,,,,,,,,,,,,,,,,,,,,,,,,,,,,,,,,1,0,0.53,0,34,34,34,1,2,NEW,SIMILAR,B,,,,,,,,,,,,,,,,,,,,,,,,,,,,,,,,,,,,,,
,,,,,,,,,,,,TestWords/KAI_LAY_TA.wav,,55b9a9b0fdf99b6906d2aba4,65,2021-03-25_02h12.05.408,CombinedMST_OA,2020.2.10,Win32,60,,,,,,,,,,,,,,,,,,,,,,,,,,,,,,,,,,,,,,,,,,,,,,,,,,,,,,,,,,,,,,,2,1,0.859,0,35,35,35,1,2,NEW,NEW,B,,,,,,,,,,,,,,,,,,,,,,,,,,,,,,,,,,,,,,
,,,,,,,,,,,,TestWords/RAY_PA_TI.wav,,55b9a9b0fdf99b6906d2aba4,65,2021-03-25_02h12.05.408,CombinedMST_OA,2020.2.10,Win32,60,,,,,,,,,,,,,,,,,,,,,,,,,,,,,,,,,,,,,,,,,,,,,,,,,,,,,,,,,,,,,,,1,1,0.773,0,36,36,36,1,1,OLD,OLD,B,,,,,,,,,,,,,,,,,,,,,,,,,,,,,,,,,,,,,,
,,,,,,,,,,,,TestWords/WAI_NA_VU.wav,,55b9a9b0fdf99b6906d2aba4,65,2021-03-25_02h12.05.408,CombinedMST_OA,2020.2.10,Win32,60,,,,,,,,,,,,,,,,,,,,,,,,,,,,,,,,,,,,,,,,,,,,,,,,,,,,,,,,,,,,,,,2,1,0.86,0,37,37,37,1,2,NEW,SIMILAR,B,,,,,,,,,,,,,,,,,,,,,,,,,,,,,,,,,,,,,,
,,,,,,,,,,,,TestWords/GA_MU_ZI.wav,,55b9a9b0fdf99b6906d2aba4,65,2021-03-25_02h12.05.408,CombinedMST_OA,2020.2.10,Win32,60,,,,,,,,,,,,,,,,,,,,,,,,,,,,,,,,,,,,,,,,,,,,,,,,,,,,,,,,,,,,,,,2,0,0.473,0,38,38,38,1,1,OLD,OLD,B,,,,,,,,,,,,,,,,,,,,,,,,,,,,,,,,,,,,,,
,,,,,,,,,,,,TestWords/MO_PU_DAY.wav,,55b9a9b0fdf99b6906d2aba4,65,2021-03-25_02h12.05.408,CombinedMST_OA,2020.2.10,Win32,60,,,,,,,,,,,,,,,,,,,,,,,,,,,,,,,,,,,,,,,,,,,,,,,,,,,,,,,,,,,,,,,2,1,0.53,0,39,39,39,1,2,NEW,SIMILAR,B,,,,,,,,,,,,,,,,,,,,,,,,,,,,,,,,,,,,,,
,,,,,,,,,,,,TestWords/DAI_RU_CHI.wav,,55b9a9b0fdf99b6906d2aba4,65,2021-03-25_02h12.05.408,CombinedMST_OA,2020.2.10,Win32,60,,,,,,,,,,,,,,,,,,,,,,,,,,,,,,,,,,,,,,,,,,,,,,,,,,,,,,,,,,,,,,,1,1,0.744,0,40,40,40,1,1,OLD,OLD,B,,,,,,,,,,,,,,,,,,,,,,,,,,,,,,,,,,,,,,
,,,,,,,,,,,,TestWords/SA_GI_TAI.wav,,55b9a9b0fdf99b6906d2aba4,65,2021-03-25_02h12.05.408,CombinedMST_OA,2020.2.10,Win32,60,,,,,,,,,,,,,,,,,,,,,,,,,,,,,,,,,,,,,,,,,,,,,,,,,,,,,,,,,,,,,,,2,1,0.457,0,41,41,41,1,2,NEW,SIMILAR,B,,,,,,,,,,,,,,,,,,,,,,,,,,,,,,,,,,,,,,
,,,,,,,,,,,,TestWords/KO_SU_FAI.wav,,55b9a9b0fdf99b6906d2aba4,65,2021-03-25_02h12.05.408,CombinedMST_OA,2020.2.10,Win32,60,,,,,,,,,,,,,,,,,,,,,,,,,,,,,,,,,,,,,,,,,,,,,,,,,,,,,,,,,,,,,,,1,1,0.71,0,42,42,42,1,1,OLD,OLD,B,,,,,,,,,,,,,,,,,,,,,,,,,,,,,,,,,,,,,,
,,,,,,,,,,,,TestWords/ZO_FU_RAI.wav,,55b9a9b0fdf99b6906d2aba4,65,2021-03-25_02h12.05.408,CombinedMST_OA,2020.2.10,Win32,60,,,,,,,,,,,,,,,,,,,,,,,,,,,,,,,,,,,,,,,,,,,,,,,,,,,,,,,,,,,,,,,2,1,0.482,0,43,43,43,1,2,NEW,SIMILAR,B,,,,,,,,,,,,,,,,,,,,,,,,,,,,,,,,,,,,,,
,,,,,,,,,,,,TestWords/KAI_LAY_TA.wav,,55b9a9b0fdf99b6906d2aba4,65,2021-03-25_02h12.05.408,CombinedMST_OA,2020.2.10,Win32,60,,,,,,,,,,,,,,,,,,,,,,,,,,,,,,,,,,,,,,,,,,,,,,,,,,,,,,,,,,,,,,,2,0,0.412,0,44,44,44,1,1,OLD,OLD,B,,,,,,,,,,,,,,,,,,,,,,,,,,,,,,,,,,,,,,
,,,,,,,,,,,,TestWords/RAY_PA_TI.wav,,55b9a9b0fdf99b6906d2aba4,65,2021-03-25_02h12.05.408,CombinedMST_OA,2020.2.10,Win32,60,,,,,,,,,,,,,,,,,,,,,,,,,,,,,,,,,,,,,,,,,,,,,,,,,,,,,,,,,,,,,,,1,1,0.736,0,45,45,45,1,1,OLD,OLD,B,,,,,,,,,,,,,,,,,,,,,,,,,,,,,,,,,,,,,,
,,,,,,,,,,,,TestWords/DAI_RU_CHI.wav,,55b9a9b0fdf99b6906d2aba4,65,2021-03-25_02h12.05.408,CombinedMST_OA,2020.2.10,Win32,60,,,,,,,,,,,,,,,,,,,,,,,,,,,,,,,,,,,,,,,,,,,,,,,,,,,,,,,,,,,,,,,1,1,0.569,0,46,46,46,1,1,OLD,OLD,B,,,,,,,,,,,,,,,,,,,,,,,,,,,,,,,,,,,,,,
,,,,,,,,,,,,TestWords/VU_NA_WAI.wav,,55b9a9b0fdf99b6906d2aba4,65,2021-03-25_02h12.05.408,CombinedMST_OA,2020.2.10,Win32,60,,,,,,,,,,,,,,,,,,,,,,,,,,,,,,,,,,,,,,,,,,,,,,,,,,,,,,,,,,,,,,,2,1,0.472,0,47,47,47,1,2,NEW,SIMILAR,B,,,,,,,,,,,,,,,,,,,,,,,,,,,,,,,,,,,,,,
,,,,,,,,,,,,TestWords/TAI_GI_SA.wav,,55b9a9b0fdf99b6906d2aba4,65,2021-03-25_02h12.05.408,CombinedMST_OA,2020.2.10,Win32,60,,,,,,,,,,,,,,,,,,,,,,,,,,,,,,,,,,,,,,,,,,,,,,,,,,,,,,,,,,,,,,,2,1,0.642,0,48,48,48,1,2,NEW,SIMILAR,B,,,,,,,,,,,,,,,,,,,,,,,,,,,,,,,,,,,,,,
,,,,,,,,,,,,TestWords/GA_MU_ZI.wav,,55b9a9b0fdf99b6906d2aba4,65,2021-03-25_02h12.05.408,CombinedMST_OA,2020.2.10,Win32,60,,,,,,,,,,,,,,,,,,,,,,,,,,,,,,,,,,,,,,,,,,,,,,,,,,,,,,,,,,,,,,,2,0,0.554,0,49,49,49,1,1,OLD,OLD,B,,,,,,,,,,,,,,,,,,,,,,,,,,,,,,,,,,,,,,
,,,,,,,,,,,,TestWords/KO_SU_FAI.wav,,55b9a9b0fdf99b6906d2aba4,65,2021-03-25_02h12.05.408,CombinedMST_OA,2020.2.10,Win32,60,,,,,,,,,,,,,,,,,,,,,,,,,,,,,,,,,,,,,,,,,,,,,,,,,,,,,,,,,,,,,,,1,1,0.733,0,50,50,50,1,1,OLD,OLD,B,,,,,,,,,,,,,,,,,,,,,,,,,,,,,,,,,,,,,,
,,,,,,,,,,,,TestWords/KAI_LAY_TA.wav,,55b9a9b0fdf99b6906d2aba4,65,2021-03-25_02h12.05.408,CombinedMST_OA,2020.2.10,Win32,60,,,,,,,,,,,,,,,,,,,,,,,,,,,,,,,,,,,,,,,,,,,,,,,,,,,,,,,,,,,,,,,1,1,0.729,0,51,51,51,1,1,OLD,OLD,B,,,,,,,,,,,,,,,,,,,,,,,,,,,,,,,,,,,,,,
,,,,,,,,,,,,TestWords/HA_SI_JAI.wav,,55b9a9b0fdf99b6906d2aba4,65,2021-03-25_02h12.05.408,CombinedMST_OA,2020.2.10,Win32,60,,,,,,,,,,,,,,,,,,,,,,,,,,,,,,,,,,,,,,,,,,,,,,,,,,,,,,,,,,,,,,,2,1,0.541,0,52,52,52,1,2,NEW,NEW,B,,,,,,,,,,,,,,,,,,,,,,,,,,,,,,,,,,,,,,
,,,,,,,,,,,,TestWords/RAY_PA_TI.wav,,55b9a9b0fdf99b6906d2aba4,65,2021-03-25_02h12.05.408,CombinedMST_OA,2020.2.10,Win32,60,,,,,,,,,,,,,,,,,,,,,,,,,,,,,,,,,,,,,,,,,,,,,,,,,,,,,,,,,,,,,,,1,1,0.698,0,53,53,53,1,1,OLD,OLD,B,,,,,,,,,,,,,,,,,,,,,,,,,,,,,,,,,,,,,,
,,,,,,,,,,,,TestWords/VU_WAI_NA.wav,,55b9a9b0fdf99b6906d2aba4,65,2021-03-25_02h12.05.408,CombinedMST_OA,2020.2.10,Win32,60,,,,,,,,,,,,,,,,,,,,,,,,,,,,,,,,,,,,,,,,,,,,,,,,,,,,,,,,,,,,,,,1,0,0.758,0,54,54,54,1,2,NEW,SIMILAR,B,,,,,,,,,,,,,,,,,,,,,,,,,,,,,,,,,,,,,,
,,,,,,,,,,,,TestWords/DAI_RU_CHI.wav,,55b9a9b0fdf99b6906d2aba4,65,2021-03-25_02h12.05.408,CombinedMST_OA,2020.2.10,Win32,60,,,,,,,,,,,,,,,,,,,,,,,,,,,,,,,,,,,,,,,,,,,,,,,,,,,,,,,,,,,,,,,2,0,0.499,0,55,55,55,1,1,OLD,OLD,B,,,,,,,,,,,,,,,,,,,,,,,,,,,,,,,,,,,,,,
,,,,,,,,,,,,TestWords/GA_MU_ZI.wav,,55b9a9b0fdf99b6906d2aba4,65,2021-03-25_02h12.05.408,CombinedMST_OA,2020.2.10,Win32,60,,,,,,,,,,,,,,,,,,,,,,,,,,,,,,,,,,,,,,,,,,,,,,,,,,,,,,,,,,,,,,,2,0,0.562,0,56,56,56,1,1,OLD,OLD,B,,,,,,,,,,,,,,,,,,,,,,,,,,,,,,,,,,,,,,
,,,,,,,,,,,,TestWords/KAI_LAY_TA.wav,,55b9a9b0fdf99b6906d2aba4,65,2021-03-25_02h12.05.408,CombinedMST_OA,2020.2.10,Win32,60,,,,,,,,,,,,,,,,,,,,,,,,,,,,,,,,,,,,,,,,,,,,,,,,,,,,,,,,,,,,,,,1,1,0.745,0,57,57,57,1,1,OLD,OLD,B,,,,,,,,,,,,,,,,,,,,,,,,,,,,,,,,,,,,,,
,,,,,,,,,,,,TestWords/NU_CHAY_SO.wav,,55b9a9b0fdf99b6906d2aba4,65,2021-03-25_02h12.05.408,CombinedMST_OA,2020.2.10,Win32,60,,,,,,,,,,,,,,,,,,,,,,,,,,,,,,,,,,,,,,,,,,,,,,,,,,,,,,,,,,,,,,,2,1,1.112,0,58,58,58,1,2,NEW,NEW,B,,,,,,,,,,,,,,,,,,,,,,,,,,,,,,,,,,,,,,
,,,,,,,,,,,,TestWords/KO_SU_FAI.wav,,55b9a9b0fdf99b6906d2aba4,65,2021-03-25_02h12.05.408,CombinedMST_OA,2020.2.10,Win32,60,,,,,,,,,,,,,,,,,,,,,,,,,,,,,,,,,,,,,,,,,,,,,,,,,,,,,,,,,,,,,,,1,1,1.024,0,59,59,59,1,1,OLD,OLD,B,,,,,,,,,,,,,,,,,,,,,,,,,,,,,,,,,,,,,,
,,,,,,,,,,,,TestWords/RAY_PA_TI.wav,,55b9a9b0fdf99b6906d2aba4,65,2021-03-25_02h12.05.408,CombinedMST_OA,2020.2.10,Win32,60,,,,,,,,,,,,,,,,,,,,,,,,,,,,,,,,,,,,,,,,,,,,,,,,,,,,,,,,,,,,,,,1,1,0.517,0,60,60,60,1,1,OLD,OLD,B,,,,,,,,,,,,,,,,,,,,,,,,,,,,,,,,,,,,,,
,,,,,,,,,,,,TestWords/BA_KAY_LI.wav,,55b9a9b0fdf99b6906d2aba4,65,2021-03-25_02h12.05.408,CombinedMST_OA,2020.2.10,Win32,60,,,,,,,,,,,,,,,,,,,,,,,,,,,,,,,,,,,,,,,,,,,,,,,,,,,,,,,,,,,,,,,2,1,0.479,0,61,61,61,1,2,NEW,NEW,B,,,,,,,,,,,,,,,,,,,,,,,,,,,,,,,,,,,,,,
,,,,,,,,,,,,TestWords/KAI_LAY_TA.wav,,55b9a9b0fdf99b6906d2aba4,65,2021-03-25_02h12.05.408,CombinedMST_OA,2020.2.10,Win32,60,,,,,,,,,,,,,,,,,,,,,,,,,,,,,,,,,,,,,,,,,,,,,,,,,,,,,,,,,,,,,,,2,0,0.754,0,62,62,62,1,1,OLD,OLD,B,,,,,,,,,,,,,,,,,,,,,,,,,,,,,,,,,,,,,,
,,,,,,,,,,,,TestWords/NA_VU_WAI.wav,,55b9a9b0fdf99b6906d2aba4,65,2021-03-25_02h12.05.408,CombinedMST_OA,2020.2.10,Win32,60,,,,,,,,,,,,,,,,,,,,,,,,,,,,,,,,,,,,,,,,,,,,,,,,,,,,,,,,,,,,,,,1,0,0.989,0,63,63,63,1,2,NEW,SIMILAR,B,,,,,,,,,,,,,,,,,,,,,,,,,,,,,,,,,,,,,,
,,,,,,,,,,,,TestWords/GA_MU_ZI.wav,,55b9a9b0fdf99b6906d2aba4,65,2021-03-25_02h12.05.408,CombinedMST_OA,2020.2.10,Win32,60,,,,,,,,,,,,,,,,,,,,,,,,,,,,,,,,,,,,,,,,,,,,,,,,,,,,,,,,,,,,,,,2,0,0.529,0,64,64,64,1,1,OLD,OLD,B,,,,,,,,,,,,,,,,,,,,,,,,,,,,,,,,,,,,,,
,,,,,,,,,,,,TestWords/KO_SU_FAI.wav,,55b9a9b0fdf99b6906d2aba4,65,2021-03-25_02h12.05.408,CombinedMST_OA,2020.2.10,Win32,60,,,,,,,,,,,,,,,,,,,,,,,,,,,,,,,,,,,,,,,,,,,,,,,,,,,,,,,,,,,,,,,1,1,0.858,0,65,65,65,1,1,OLD,OLD,B,,,,,,,,,,,,,,,,,,,,,,,,,,,,,,,,,,,,,,
,,,,,,,,,,,,TestWords/DAI_RU_CHI.wav,,55b9a9b0fdf99b6906d2aba4,65,2021-03-25_02h12.05.408,CombinedMST_OA,2020.2.10,Win32,60,,,,,,,,,,,,,,,,,,,,,,,,,,,,,,,,,,,,,,,,,,,,,,,,,,,,,,,,,,,,,,,1,1,0.97,0,66,66,66,1,1,OLD,OLD,B,,,,,,,,,,,,,,,,,,,,,,,,,,,,,,,,,,,,,,
,,,,,,,,,,,,TestWords/GU_CHAI_PI.wav,,55b9a9b0fdf99b6906d2aba4,65,2021-03-25_02h12.05.408,CombinedMST_OA,2020.2.10,Win32,60,,,,,,,,,,,,,,,,,,,,,,,,,,,,,,,,,,,,,,,,,,,,,,,,,,,,,,,,,,,,,,,1,0,1.333,0,67,67,67,1,2,NEW,NEW,B,,,,,,,,,,,,,,,,,,,,,,,,,,,,,,,,,,,,,,
,,,,,,,,,,,,TestWords/RAY_PA_TI.wav,,55b9a9b0fdf99b6906d2aba4,65,2021-03-25_02h12.05.408,CombinedMST_OA,2020.2.10,Win32,60,,,,,,,,,,,,,,,,,,,,,,,,,,,,,,,,,,,,,,,,,,,,,,,,,,,,,,,,,,,,,,,1,1,0.737,0,68,68,68,1,1,OLD,OLD,B,,,,,,,,,,,,,,,,,,,,,,,,,,,,,,,,,,,,,,
,,,,,,,,,,,,TestWords/KAY_LI_BA.wav,,55b9a9b0fdf99b6906d2aba4,65,2021-03-25_02h12.05.408,CombinedMST_OA,2020.2.10,Win32,60,,,,,,,,,,,,,,,,,,,,,,,,,,,,,,,,,,,,,,,,,,,,,,,,,,,,,,,,,,,,,,,2,1,0.689,0,69,69,69,1,2,NEW,SIMILAR,B,,,,,,,,,,,,,,,,,,,,,,,,,,,,,,,,,,,,,,
,,,,,,,,,,,,TestWords/KAI_LAY_TA.wav,,55b9a9b0fdf99b6906d2aba4,65,2021-03-25_02h12.05.408,CombinedMST_OA,2020.2.10,Win32,60,,,,,,,,,,,,,,,,,,,,,,,,,,,,,,,,,,,,,,,,,,,,,,,,,,,,,,,,,,,,,,,2,0,0.515,0,70,70,70,1,1,OLD,OLD,B,,,,,,,,,,,,,,,,,,,,,,,,,,,,,,,,,,,,,,
,,,,,,,,,,,,TestWords/KO_SU_FAI.wav,,55b9a9b0fdf99b6906d2aba4,65,2021-03-25_02h12.05.408,CombinedMST_OA,2020.2.10,Win32,60,,,,,,,,,,,,,,,,,,,,,,,,,,,,,,,,,,,,,,,,,,,,,,,,,,,,,,,,,,,,,,,1,1,0.96,0,71,71,71,1,1,OLD,OLD,B,,,,,,,,,,,,,,,,,,,,,,,,,,,,,,,,,,,,,,
,,,,,,,,,,,,TestWords/DAI_RU_CHI.wav,,55b9a9b0fdf99b6906d2aba4,65,2021-03-25_02h12.05.408,CombinedMST_OA,2020.2.10,Win32,60,,,,,,,,,,,,,,,,,,,,,,,,,,,,,,,,,,,,,,,,,,,,,,,,,,,,,,,,,,,,,,,2,0,1.132,0,72,72,72,1,1,OLD,OLD,B,,,,,,,,,,,,,,,,,,,,,,,,,,,,,,,,,,,,,,
,,,,,,,,,,,,TestWords/NA_WAI_VU.wav,,55b9a9b0fdf99b6906d2aba4,65,2021-03-25_02h12.05.408,CombinedMST_OA,2020.2.10,Win32,60,,,,,,,,,,,,,,,,,,,,,,,,,,,,,,,,,,,,,,,,,,,,,,,,,,,,,,,,,,,,,,,1,0,0.775,0,73,73,73,1,2,NEW,SIMILAR,B,,,,,,,,,,,,,,,,,,,,,,,,,,,,,,,,,,,,,,
,,,,,,,,,,,,TestWords/GA_MU_ZI.wav,,55b9a9b0fdf99b6906d2aba4,65,2021-03-25_02h12.05.408,CombinedMST_OA,2020.2.10,Win32,60,,,,,,,,,,,,,,,,,,,,,,,,,,,,,,,,,,,,,,,,,,,,,,,,,,,,,,,,,,,,,,,2,0,1.222,0,74,74,74,1,1,OLD,OLD,B,,,,,,,,,,,,,,,,,,,,,,,,,,,,,,,,,,,,,,
,,,,,,,,,,,,TestWords/KAY_BA_LI.wav,,55b9a9b0fdf99b6906d2aba4,65,2021-03-25_02h12.05.408,CombinedMST_OA,2020.2.10,Win32,60,,,,,,,,,,,,,,,,,,,,,,,,,,,,,,,,,,,,,,,,,,,,,,,,,,,,,,,,,,,,,,,2,1,0.67,0,75,75,75,1,2,NEW,SIMILAR,B,,,,,,,,,,,,,,,,,,,,,,,,,,,,,,,,,,,,,,
,,,,,,,,,,,,TestWords/WAI_RO_JU.wav,,55b9a9b0fdf99b6906d2aba4,65,2021-03-25_02h12.05.408,CombinedMST_OA,2020.2.10,Win32,60,,,,,,,,,,,,,,,,,,,,,,,,,,,,,,,,,,,,,,,,,,,,,,,,,,,,,,,,,,,,,,,2,1,0.558,0,76,76,76,1,2,NEW,NEW,B,,,,,,,,,,,,,,,,,,,,,,,,,,,,,,,,,,,,,,
,,,,,,,,,,,,TestWords/RAY_PA_TI.wav,,55b9a9b0fdf99b6906d2aba4,65,2021-03-25_02h12.05.408,CombinedMST_OA,2020.2.10,Win32,60,,,,,,,,,,,,,,,,,,,,,,,,,,,,,,,,,,,,,,,,,,,,,,,,,,,,,,,,,,,,,,,1,1,0.575,0,77,77,77,1,1,OLD,OLD,B,,,,,,,,,,,,,,,,,,,,,,,,,,,,,,,,,,,,,,
,,,,,,,,,,,,TestWords/KAI_LAY_TA.wav,,55b9a9b0fdf99b6906d2aba4,65,2021-03-25_02h12.05.408,CombinedMST_OA,2020.2.10,Win32,60,,,,,,,,,,,,,,,,,,,,,,,,,,,,,,,,,,,,,,,,,,,,,,,,,,,,,,,,,,,,,,,1,1,0.486,0,78,78,78,1,1,OLD,OLD,B,,,,,,,,,,,,,,,,,,,,,,,,,,,,,,,,,,,,,,
,,,,,,,,,,,,TestWords/HI_NAY_VA.wav,,55b9a9b0fdf99b6906d2aba4,65,2021-03-25_02h12.05.408,CombinedMST_OA,2020.2.10,Win32,60,,,,,,,,,,,,,,,,,,,,,,,,,,,,,,,,,,,,,,,,,,,,,,,,,,,,,,,,,,,,,,,2,1,0.623,0,79,79,79,1,2,NEW,NEW,B,,,,,,,,,,,,,,,,,,,,,,,,,,,,,,,,,,,,,,
,,,,,,,,,,,,TestWords/KO_SU_FAI.wav,,55b9a9b0fdf99b6906d2aba4,65,2021-03-25_02h12.05.408,CombinedMST_OA,2020.2.10,Win32,60,,,,,,,,,,,,,,,,,,,,,,,,,,,,,,,,,,,,,,,,,,,,,,,,,,,,,,,,,,,,,,,1,1,0.817,0,80,80,80,1,1,OLD,OLD,B,,,,,,,,,,,,,,,,,,,,,,,,,,,,,,,,,,,,,,
,,,,,,,,,,,,TestWords/GA_MU_ZI.wav,,55b9a9b0fdf99b6906d2aba4,65,2021-03-25_02h12.05.408,CombinedMST_OA,2020.2.10,Win32,60,,,,,,,,,,,,,,,,,,,,,,,,,,,,,,,,,,,,,,,,,,,,,,,,,,,,,,,,,,,,,,,1,1,0.686,0,81,81,81,1,1,OLD,OLD,B,,,,,,,,,,,,,,,,,,,,,,,,,,,,,,,,,,,,,,
,,,,,,,,,,,,TestWords/KAI_LAY_TA.wav,,55b9a9b0fdf99b6906d2aba4,65,2021-03-25_02h12.05.408,CombinedMST_OA,2020.2.10,Win32,60,,,,,,,,,,,,,,,,,,,,,,,,,,,,,,,,,,,,,,,,,,,,,,,,,,,,,,,,,,,,,,,1,1,0.653,0,82,82,82,1,1,OLD,OLD,B,,,,,,,,,,,,,,,,,,,,,,,,,,,,,,,,,,,,,,
,,,,,,,,,,,,TestWords/LI_BA_KAY.wav,,55b9a9b0fdf99b6906d2aba4,65,2021-03-25_02h12.05.408,CombinedMST_OA,2020.2.10,Win32,60,,,,,,,,,,,,,,,,,,,,,,,,,,,,,,,,,,,,,,,,,,,,,,,,,,,,,,,,,,,,,,,1,0,0.798,0,83,83,83,1,2,NEW,SIMILAR,B,,,,,,,,,,,,,,,,,,,,,,,,,,,,,,,,,,,,,,
,,,,,,,,,,,,TestWords/DAI_RU_CHI.wav,,55b9a9b0fdf99b6906d2aba4,65,2021-03-25_02h12.05.408,CombinedMST_OA,2020.2.10,Win32,60,,,,,,,,,,,,,,,,,,,,,,,,,,,,,,,,,,,,,,,,,,,,,,,,,,,,,,,,,,,,,,,1,1,0.481,0,84,84,84,1,1,OLD,OLD,B,,,,,,,,,,,,,,,,,,,,,,,,,,,,,,,,,,,,,,
,,,,,,,,,,,,TestWords/KO_SU_FAI.wav,,55b9a9b0fdf99b6906d2aba4,65,2021-03-25_02h12.05.408,CombinedMST_OA,2020.2.10,Win32,60,,,,,,,,,,,,,,,,,,,,,,,,,,,,,,,,,,,,,,,,,,,,,,,,,,,,,,,,,,,,,,,2,0,0.906,0,85,85,85,1,1,OLD,OLD,B,,,,,,,,,,,,,,,,,,,,,,,,,,,,,,,,,,,,,,
,,,,,,,,,,,,TestWords/NO_WA_BAY.wav,,55b9a9b0fdf99b6906d2aba4,65,2021-03-25_02h12.05.408,CombinedMST_OA,2020.2.10,Win32,60,,,,,,,,,,,,,,,,,,,,,,,,,,,,,,,,,,,,,,,,,,,,,,,,,,,,,,,,,,,,,,,2,1,0.61,0,86,86,86,1,2,NEW,NEW,B,,,,,,,,,,,,,,,,,,,,,,,,,,,,,,,,,,,,,,
,,,,,,,,,,,,TestWords/KAI_LAY_TA.wav,,55b9a9b0fdf99b6906d2aba4,65,2021-03-25_02h12.05.408,CombinedMST_OA,2020.2.10,Win32,60,,,,,,,,,,,,,,,,,,,,,,,,,,,,,,,,,,,,,,,,,,,,,,,,,,,,,,,,,,,,,,,1,1,0.792,0,87,87,87,1,1,OLD,OLD,B,,,,,,,,,,,,,,,,,,,,,,,,,,,,,,,,,,,,,,
,,,,,,,,,,,,TestWords/GA_MU_ZI.wav,,55b9a9b0fdf99b6906d2aba4,65,2021-03-25_02h12.05.408,CombinedMST_OA,2020.2.10,Win32,60,,,,,,,,,,,,,,,,,,,,,,,,,,,,,,,,,,,,,,,,,,,,,,,,,,,,,,,,,,,,,,,1,1,0.812,0,88,88,88,1,1,OLD,OLD,B,,,,,,,,,,,,,,,,,,,,,,,,,,,,,,,,,,,,,,
,,,,,,,,,,,,TestWords/DAI_RU_CHI.wav,,55b9a9b0fdf99b6906d2aba4,65,2021-03-25_02h12.05.408,CombinedMST_OA,2020.2.10,Win32,60,,,,,,,,,,,,,,,,,,,,,,,,,,,,,,,,,,,,,,,,,,,,,,,,,,,,,,,,,,,,,,,1,1,0.461,0,89,89,89,1,1,OLD,OLD,B,,,,,,,,,,,,,,,,,,,,,,,,,,,,,,,,,,,,,,
,,,,,,,,,,,,TestWords/LA_ZAY_CHAI.wav,,55b9a9b0fdf99b6906d2aba4,65,2021-03-25_02h12.05.408,CombinedMST_OA,2020.2.10,Win32,60,,,,,,,,,,,,,,,,,,,,,,,,,,,,,,,,,,,,,,,,,,,,,,,,,,,,,,,,,,,,,,,2,1,0.751,0,90,90,90,1,2,NEW,NEW,B,,,,,,,,,,,,,,,,,,,,,,,,,,,,,,,,,,,,,,
,,,,,,,,,,,,TestWords/BA_LI_KAY.wav,,55b9a9b0fdf99b6906d2aba4,65,2021-03-25_02h12.05.408,CombinedMST_OA,2020.2.10,Win32,60,,,,,,,,,,,,,,,,,,,,,,,,,,,,,,,,,,,,,,,,,,,,,,,,,,,,,,,,,,,,,,,2,1,0.627,0,91,91,91,1,2,NEW,SIMILAR,B,,,,,,,,,,,,,,,,,,,,,,,,,,,,,,,,,,,,,,
,,,,,,,,,,,,TestWords/PAI_LU_WA.wav,,55b9a9b0fdf99b6906d2aba4,65,2021-03-25_02h12.05.408,CombinedMST_OA,2020.2.10,Win32,60,,,,,,,,,,,,,,,,,,,,,,,,,,,,,,,,,,,,,,,,,,,,,,,,,,,,,,,,,,,,,,,2,1,0.52,0,92,92,92,1,2,NEW,NEW,B,,,,,,,,,,,,,,,,,,,,,,,,,,,,,,,,,,,,,,
,,,,,,,,,,,,TestWords/KO_SU_FAI.wav,,55b9a9b0fdf99b6906d2aba4,65,2021-03-25_02h12.05.408,CombinedMST_OA,2020.2.10,Win32,60,,,,,,,,,,,,,,,,,,,,,,,,,,,,,,,,,,,,,,,,,,,,,,,,,,,,,,,,,,,,,,,1,1,0.601,0,93,93,93,1,1,OLD,OLD,B,,,,,,,,,,,,,,,,,,,,,,,,,,,,,,,,,,,,,,
,,,,,,,,,,,,TestWords/KAI_LAY_TA.wav,,55b9a9b0fdf99b6906d2aba4,65,2021-03-25_02h12.05.408,CombinedMST_OA,2020.2.10,Win32,60,,,,,,,,,,,,,,,,,,,,,,,,,,,,,,,,,,,,,,,,,,,,,,,,,,,,,,,,,,,,,,,1,1,0.634,0,94,94,94,1,1,OLD,OLD,B,,,,,,,,,,,,,,,,,,,,,,,,,,,,,,,,,,,,,,
,,,,,,,,,,,,TestWords/VAI_HO_LA.wav,,55b9a9b0fdf99b6906d2aba4,65,2021-03-25_02h12.05.408,CombinedMST_OA,2020.2.10,Win32,60,,,,,,,,,,,,,,,,,,,,,,,,,,,,,,,,,,,,,,,,,,,,,,,,,,,,,,,,,,,,,,,2,1,0.452,0,95,95,95,1,2,NEW,NEW,B,,,,,,,,,,,,,,,,,,,,,,,,,,,,,,,,,,,,,,
,,,,,,,,,,,,TestWords/GA_MU_ZI.wav,,55b9a9b0fdf99b6906d2aba4,65,2021-03-25_02h12.05.408,CombinedMST_OA,2020.2.10,Win32,60,,,,,,,,,,,,,,,,,,,,,,,,,,,,,,,,,,,,,,,,,,,,,,,,,,,,,,,,,,,,,,,1,1,0.854,0,96,96,96,1,1,OLD,OLD,B,,,,,,,,,,,,,,,,,,,,,,,,,,,,,,,,,,,,,,
,,,,,,,,,,,,TestWords/LI_KAY_BA.wav,,55b9a9b0fdf99b6906d2aba4,65,2021-03-25_02h12.05.408,CombinedMST_OA,2020.2.10,Win32,60,,,,,,,,,,,,,,,,,,,,,,,,,,,,,,,,,,,,,,,,,,,,,,,,,,,,,,,,,,,,,,,1,0,0.492,0,97,97,97,1,2,NEW,SIMILAR,B,,,,,,,,,,,,,,,,,,,,,,,,,,,,,,,,,,,,,,
,,,,,,,,,,,,TestWords/KAI_LAY_TA.wav,,55b9a9b0fdf99b6906d2aba4,65,2021-03-25_02h12.05.408,CombinedMST_OA,2020.2.10,Win32,60,,,,,,,,,,,,,,,,,,,,,,,,,,,,,,,,,,,,,,,,,,,,,,,,,,,,,,,,,,,,,,,1,1,0.498,0,98,98,98,1,1,OLD,OLD,B,,,,,,,,,,,,,,,,,,,,,,,,,,,,,,,,,,,,,,
,,,,,,,,,,,,TestWords/SI_VAI_CHU.wav,,55b9a9b0fdf99b6906d2aba4,65,2021-03-25_02h12.05.408,CombinedMST_OA,2020.2.10,Win32,60,,,,,,,,,,,,,,,,,,,,,,,,,,,,,,,,,,,,,,,,,,,,,,,,,,,,,,,,,,,,,,,2,1,0.5,0,99,99,99,1,2,NEW,NEW,B,,,,,,,,,,,,,,,,,,,,,,,,,,,,,,,,,,,,,,
,,,,,,,,,,,,,2,55b9a9b0fdf99b6906d2aba4,65,2021-03-25_02h12.05.408,CombinedMST_OA,2020.2.10,Win32,60,,,,,,,,,,,,,,,,,,,,,,,,,,,,,,,,,,,,,,,,,,,,,,,,,,,,,,,,,,,SyllableCheck/SU.wav,,,,,,,,,,,,,,,,return,15.082,GREEN,space,14.452,2,1,4.316,0,0,0,1,1,SU,SO,SU,ZU,,,,,,,,,,,,,,,,,,,,,
,,,,,,,,,,,,,1,55b9a9b0fdf99b6906d2aba4,65,2021-03-25_02h12.05.408,CombinedMST_OA,2020.2.10,Win32,60,,,,,,,,,,,,,,,,,,,,,,,,,,,,,,,,,,,,,,,,,,,,,,,,,,,,,,,,,,,SyllableCheck/TI.wav,,,,,,,,,,,,,,,,,,,,,1,1,1.946,0,1,1,0,1,TI,TEE,DEE,SEE,,,,,,,,,,,,,,,,,,,,,
,,,,,,,,,,,,,3,55b9a9b0fdf99b6906d2aba4,65,2021-03-25_02h12.05.408,CombinedMST_OA,2020.2.10,Win32,60,,,,,,,,,,,,,,,,,,,,,,,,,,,,,,,,,,,,,,,,,,,,,,,,,,,,,,,,,,,SyllableCheck/FU.wav,,,,,,,,,,,,,,,,,,,,,3,1,2.757,0,2,2,3,1,FU,VU,FO,FU,,,,,,,,,,,,,,,,,,,,,
,,,,,,,,,,,,,2,55b9a9b0fdf99b6906d2aba4,65,2021-03-25_02h12.05.408,CombinedMST_OA,2020.2.10,Win32,60,,,,,,,,,,,,,,,,,,,,,,,,,,,,,,,,,,,,,,,,,,,,,,,,,,,,,,,,,,,SyllableCheck/KAY.wav,,,,,,,,,,,,,,,,,,,,,2,1,1.76,0,3,3,2,1,KAY,KEE,KAY,HAY,,,,,,,,,,,,,,,,,,,,,
,,,,,,,,,,,,,3,55b9a9b0fdf99b6906d2aba4,65,2021-03-25_02h12.05.408,CombinedMST_OA,2020.2.10,Win32,60,,,,,,,,,,,,,,,,,,,,,,,,,,,,,,,,,,,,,,,,,,,,,,,,,,,,,,,,,,,SyllableCheck/BA.wav,,,,,,,,,,,,,,,,,,,,,3,1,2.169,0,4,4,4,1,BA,PA,BEE,BA,,,,,,,,,,,,,,,,,,,,,
,,,,,,,,,,,,,,55b9a9b0fdf99b6906d2aba4,65,2021-03-25_02h12.05.408,CombinedMST_OA,2020.2.10,Win32,60,,,,,,,,,,,,,,,,,,,,,,,,,,,,,,,,,,,,,,,,,,,,,,,,,,,,,,,,,,,,,,,,,,,,,,,,,,,,,,,,,,,,,,,,,,,,0,0,0,0,1,,,,,,,,,,,,,,,,
,,,,,,,,,,,,,,55b9a9b0fdf99b6906d2aba4,65,2021-03-25_02h12.05.408,CombinedMST_OA,2020.2.10,Win32,60,,,,,,,,,,,,,,,,,,,,,,,,,,,,,,,,,,,,,,,,0,1,1,0,1,1,0,,,,,,,,,,,,,,,,,,,,,,,,,,,,,,,,,,,,,,,,,,,,,,,,,,,,,,,,,,,,,,,,,,
,,,,,,,,,,,,,,55b9a9b0fdf99b6906d2aba4,65,2021-03-25_02h12.05.408,CombinedMST_OA,2020.2.10,Win32,60,,,,,,,,,,,,,,,,,,,,,,,,,,,,,,,,,,,,,,,,,,,,,,,,,,,,,,,,,,,,,,,,,,,,,,,,,,,,,,,,,,,,,,,,,,,,,,,,,space,20.548,space,27.515,return,13.471,LION ROAR,0,0,0,19,1,SoundMST/Growl_H.wav,SIMILAR,,
,,,,,,,,,,,,,,55b9a9b0fdf99b6906d2aba4,65,2021-03-25_02h12.05.408,CombinedMST_OA,2020.2.10,Win32,60,,,,,,,,,,,,,,,,,,,,,,,,,,,,,,,,,,,,,,,,,,,,,,,,,,,,,,,,,,,,,,,,,,,,,,,,,,,,,,,,,,,,,,,,,,,,,,,,,,,,,return,13.131, RUNNING TAP,0,1,1,5,1,SoundMST/Faucet_C.wav,SIMILAR,,
,,,,,,,,,,,,,,55b9a9b0fdf99b6906d2aba4,65,2021-03-25_02h12.05.408,CombinedMST_OA,2020.2.10,Win32,60,,,,,,,,,,,,,,,,,,,,,,,,,,,,,,,,,,,,,,,,,,,,,,,,,,,,,,,,,,,,,,,,,,,,,,,,,,,,,,,,,,,,,,,,,,,,,,,,,,,,,return,24.549, BOOT CLIMBING STAIRS,0,2,2,40,1,SoundMST/Footsteps_C.wav,SIMILAR,,
,,,,,,,,,,,,,,55b9a9b0fdf99b6906d2aba4,65,2021-03-25_02h12.05.408,CombinedMST_OA,2020.2.10,Win32,60,,,,,,,,,,,,,,,,,,,,,,,,,,,,,,,,,,,,,,,,,,,,,,,,,,,,,,,,,,,,,,,,,,,,,,,,,,,,,,,,,,,,,,,,,,,,,,,,,,,,,return,12.279, CAR STARTING,0,3,3,22,1,SoundMST/CarStart_F.wav,SIMILAR,,
,,,,,,,,,,,,,,55b9a9b0fdf99b6906d2aba4,65,2021-03-25_02h12.05.408,CombinedMST_OA,2020.2.10,Win32,60,,,,,,,,,,,,,,,,,,,,,,,,,,,,,,,,,,,,,,,,,,,,,,,,,,,,,,,,,,,,,,,,,,,,,,,,,,,,,,,,,,,,,,,,,,,,,,,,,,,,,return,9.602, CAR STARTING,0,4,4,46,1,SoundMST/CarStart_E.wav,SIMILAR,,
,,,,,,,,,,,,,,55b9a9b0fdf99b6906d2aba4,65,2021-03-25_02h12.05.408,CombinedMST_OA,2020.2.10,Win32,60,,,,,,,,,,,,,,,,,,,,,,,,,,,,,,,,,,,,,,,,,,,,,,,,,,,,,,,,,,,,,,,,,,,,,,,,,,,,,,,,,,,,,,,,,,,,,,,,,,,,,return,12.579, DONKEY BRAYING,0,5,5,87,1,SoundMST/Donkey.wav,SAME,,
,,,,,,,,,,,,,,55b9a9b0fdf99b6906d2aba4,65,2021-03-25_02h12.05.408,CombinedMST_OA,2020.2.10,Win32,60,,,,,,,,,,,,,,,,,,,,,,,,,,,,,,,,,,,,,,,,,,,,,,,,,,,,,,,,,,,,,,,,,,,,,,,,,,,,,,,,,,,,,,,,,,,,,,,,,,,,,return,11.949, WATER DRIPPING,0,6,6,85,1,SoundMST/Droplet_B.wav,SAME,,
,,,,,,,,,,,,,,55b9a9b0fdf99b6906d2aba4,65,2021-03-25_02h12.05.408,CombinedMST_OA,2020.2.10,Win32,60,,,,,,,,,,,,,,,,,,,,,,,,,,,,,,,,,,,,,,,,,,,,,,,,,,,,,,,,,,,,,,,,,,,,,,,,,,,,,,,,,,,,,,,,,,,,,,,,,,,,,return,11.635, BELLS RINGING,0,7,7,26,1,SoundMST/Chime_B.wav,SIMILAR,,
,,,,,,,,,,,,,,55b9a9b0fdf99b6906d2aba4,65,2021-03-25_02h12.05.408,CombinedMST_OA,2020.2.10,Win32,60,,,,,,,,,,,,,,,,,,,,,,,,,,,,,,,,,,,,,,,,,,,,,,,,,,,,,,,,,,,,,,,,,,,,,,,,,,,,,,,,,,,,,,,,,,,,,,,,,,,,,return,17.935, BIRD WHISTLING,0,8,8,35,1,SoundMST/Whistle_B.wav,SIMILAR,,
,,,,,,,,,,,,,,55b9a9b0fdf99b6906d2aba4,65,2021-03-25_02h12.05.408,CombinedMST_OA,2020.2.10,Win32,60,,,,,,,,,,,,,,,,,,,,,,,,,,,,,,,,,,,,,,,,,,,,,,,,,,,,,,,,,,,,,,,,,,,,,,,,,,,,,,,,,,,,,,,,,,,,,,,,,,,,,return,13.516, HELICOPTER FLYING,0,9,9,79,1,SoundMST/Helicopter_A.wav,SAME,,
,,,,,,,,,,,,,,55b9a9b0fdf99b6906d2aba4,65,2021-03-25_02h12.05.408,CombinedMST_OA,2020.2.10,Win32,60,,,,,,,,,,,,,,,,,,,,,,,,,,,,,,,,,,,,,,,,,,,,,,,,,,,,,,,,,,,,,,,,,,,,,,,,,,,,,,,,,,,,,,,,,,,,,,,,,,,,,return,7.332, DOG BARKING,0,10,10,41,1,SoundMST/Dog_H.wav,SIMILAR,,
,,,,,,,,,,,,,,55b9a9b0fdf99b6906d2aba4,65,2021-03-25_02h12.05.408,CombinedMST_OA,2020.2.10,Win32,60,,,,,,,,,,,,,,,,,,,,,,,,,,,,,,,,,,,,,,,,,,,,,,,,,,,,,,,,,,,,,,,,,,,,,,,,,,,,,,,,,,,,,,,,,,,,,,,,,,,,,return,14.344, DUCK QUACKING,0,11,11,8,1,SoundMST/Duck_D.wav,SIMILAR,,
,,,,,,,,,,,,,,55b9a9b0fdf99b6906d2aba4,65,2021-03-25_02h12.05.408,CombinedMST_OA,2020.2.10,Win32,60,,,,,,,,,,,,,,,,,,,,,,,,,,,,,,,,,,,,,,,,,,,,,,,,,,,,,,,,,,,,,,,,,,,,,,,,,,,,,,,,,,,,,,,,,,,,,,,,,,,,,return,9.956, SHEEP BLEATING,0,12,12,20,1,SoundMST/Goat_C.wav,SIMILAR,,
,,,,,,,,,,,,,,55b9a9b0fdf99b6906d2aba4,65,2021-03-25_02h12.05.408,CombinedMST_OA,2020.2.10,Win32,60,,,,,,,,,,,,,,,,,,,,,,,,,,,,,,,,,,,,,,,,,,,,,,,,,,,,,,,,,,,,,,,,,,,,,,,,,,,,,,,,,,,,,,,,,,,,,,,,,,,,,return,13.207, CROW CROWING,0,13,13,15,1,SoundMST/Crow_A.wav,SIMILAR,,
,,,,,,,,,,,,,,55b9a9b0fdf99b6906d2aba4,65,2021-03-25_02h12.05.408,CombinedMST_OA,2020.2.10,Win32,60,,,,,,,,,,,,,,,,,,,,,,,,,,,,,,,,,,,,,,,,,,,,,,,,,,,,,,,,,,,,,,,,,,,,,,,,,,,,,,,,,,,,,,,,,,,,,,,,,,,,,return,8.614, TYPING,0,14,14,49,1,SoundMST/Typing.wav,SAME,,
,,,,,,,,,,,,,,55b9a9b0fdf99b6906d2aba4,65,2021-03-25_02h12.05.408,CombinedMST_OA,2020.2.10,Win32,60,,,,,,,,,,,,,,,,,,,,,,,,,,,,,,,,,,,,,,,,,,,,,,,,,,,,,,,,,,,,,,,,,,,,,,,,,,,,,,,,,,,,,,,,,,,,,,,,,,,,,return,8.027, DUCK QUACKING,0,15,15,32,1,SoundMST/Duck_C.wav,SIMILAR,,
,,,,,,,,,,,,,,55b9a9b0fdf99b6906d2aba4,65,2021-03-25_02h12.05.408,CombinedMST_OA,2020.2.10,Win32,60,,,,,,,,,,,,,,,,,,,,,,,,,,,,,,,,,,,,,,,,,,,,,,,,,,,,,,,,,,,,,,,,,,,,,,,,,,,,,,,,,,,,,,,,,,,,,,,,,,,,,return,15.422, LIQUID BEING POURED INTO GLASS,0,16,16,25,1,SoundMST/Pour_B.wav,SIMILAR,,
,,,,,,,,,,,,,,55b9a9b0fdf99b6906d2aba4,65,2021-03-25_02h12.05.408,CombinedMST_OA,2020.2.10,Win32,60,,,,,,,,,,,,,,,,,,,,,,,,,,,,,,,,,,,,,,,,,,,,,,,,,,,,,,,,,,,,,,,,,,,,,,,,,,,,,,,,,,,,,,,,,,,,,,,,,,,,,return,7.196, APPLAUSE,0,17,17,23,1,SoundMST/Clap_C.wav,SIMILAR,,
,,,,,,,,,,,,,,55b9a9b0fdf99b6906d2aba4,65,2021-03-25_02h12.05.408,CombinedMST_OA,2020.2.10,Win32,60,,,,,,,,,,,,,,,,,,,,,,,,,,,,,,,,,,,,,,,,,,,,,,,,,,,,,,,,,,,,,,,,,,,,,,,,,,,,,,,,,,,,,,,,,,,,,,,,,,,,,return,10.315, ELECTRIC MOTOR,0,18,18,74,1,SoundMST/HairDryer_A.wav,SAME,,
,,,,,,,,,,,,,,55b9a9b0fdf99b6906d2aba4,65,2021-03-25_02h12.05.408,CombinedMST_OA,2020.2.10,Win32,60,,,,,,,,,,,,,,,,,,,,,,,,,,,,,,,,,,,,,,,,,,,,,,,,,,,,,,,,,,,,,,,,,,,,,,,,,,,,,,,,,,,,,,,,,,,,,,,,,,,,,return,10.023, WOLF HOWLING,0,19,19,80,1,SoundMST/Howl.wav,SAME,,
,,,,,,,,,,,,,,55b9a9b0fdf99b6906d2aba4,65,2021-03-25_02h12.05.408,CombinedMST_OA,2020.2.10,Win32,60,,,,,,,,,,,,,,,,,,,,,,,,,,,,,,,,,,,,,,,,,,,,,,,,,,,,,,,,,,,,,,,,,,,,,,,,,,,,,,,,,,,,,,,,,,,,,,,,,,,,,return,12.017, HORSE WINNYING,0,20,20,82,1,SoundMST/Horse.wav,SAME,,
,,,,,,,,,,,,,,55b9a9b0fdf99b6906d2aba4,65,2021-03-25_02h12.05.408,CombinedMST_OA,2020.2.10,Win32,60,,,,,,,,,,,,,,,,,,,,,,,,,,,,,,,,,,,,,,,,,,,,,,,,,,,,,,,,,,,,,,,,,,,,,,,,,,,,,,,,,,,,,,,,,,,,,,,,,,,,,return,10.742, HORN HONKING,0,21,21,70,1,SoundMST/Airhorn.wav,SAME,,
,,,,,,,,,,,,,,55b9a9b0fdf99b6906d2aba4,65,2021-03-25_02h12.05.408,CombinedMST_OA,2020.2.10,Win32,60,,,,,,,,,,,,,,,,,,,,,,,,,,,,,,,,,,,,,,,,,,,,,,,,,,,,,,,,,,,,,,,,,,,,,,,,,,,,,,,,,,,,,,,,,,,,,,,,,,,,,return,5.318, DIAL TONE,0,22,22,54,1,SoundMST/DialTone.wav,SAME,,
,,,,,,,,,,,,,,55b9a9b0fdf99b6906d2aba4,65,2021-03-25_02h12.05.408,CombinedMST_OA,2020.2.10,Win32,60,,,,,,,,,,,,,,,,,,,,,,,,,,,,,,,,,,,,,,,,,,,,,,,,,,,,,,,,,,,,,,,,,,,,,,,,,,,,,,,,,,,,,,,,,,,,,,,,,,,,,return,7.263, DOG BARKING,0,23,23,17,1,SoundMST/Dog_F.wav,SIMILAR,,
,,,,,,,,,,,,,,55b9a9b0fdf99b6906d2aba4,65,2021-03-25_02h12.05.408,CombinedMST_OA,2020.2.10,Win32,60,,,,,,,,,,,,,,,,,,,,,,,,,,,,,,,,,,,,,,,,,,,,,,,,,,,,,,,,,,,,,,,,,,,,,,,,,,,,,,,,,,,,,,,,,,,,,,,,,,,,,return,9.52, LAUGHTER,0,24,24,33,1,SoundMST/Laugh_A.wav,SIMILAR,,
,,,,,,,,,,,,,,55b9a9b0fdf99b6906d2aba4,65,2021-03-25_02h12.05.408,CombinedMST_OA,2020.2.10,Win32,60,,,,,,,,,,,,,,,,,,,,,,,,,,,,,,,,,,,,,,,,,,,,,,,,,,,,,,,,,,,,,,,,,,,,,,,,,,,,,,,,,,,,,,,,,,,,,,,,,,,,,return,9.081, BABY COOING,0,25,25,4,1,SoundMST/Baby_E.wav,SIMILAR,,
,,,,,,,,,,,,,,55b9a9b0fdf99b6906d2aba4,65,2021-03-25_02h12.05.408,CombinedMST_OA,2020.2.10,Win32,60,,,,,,,,,,,,,,,,,,,,,,,,,,,,,,,,,,,,,,,,,,,,,,,,,,,,,,,,,,,,,,,,,,,,,,,,,,,,,,,,,,,,,,,,,,,,,,,,,,,,,return,13.644, GLASS BEING SET DOWN,0,26,26,68,1,SoundMST/Cup.wav,SAME,,
,,,,,,,,,,,,,,55b9a9b0fdf99b6906d2aba4,65,2021-03-25_02h12.05.408,CombinedMST_OA,2020.2.10,Win32,60,,,,,,,,,,,,,,,,,,,,,,,,,,,,,,,,,,,,,,,,,,,,,,,,,,,,,,,,,,,,,,,,,,,,,,,,,,,,,,,,,,,,,,,,,,,,,,,,,,,,,return,7.497, SIREN,0,27,27,38,1,SoundMST/Siren_E.wav,SIMILAR,,
,,,,,,,,,,,,,,55b9a9b0fdf99b6906d2aba4,65,2021-03-25_02h12.05.408,CombinedMST_OA,2020.2.10,Win32,60,,,,,,,,,,,,,,,,,,,,,,,,,,,,,,,,,,,,,,,,,,,,,,,,,,,,,,,,,,,,,,,,,,,,,,,,,,,,,,,,,,,,,,,,,,,,,,,,,,,,,return,8.537, BELLS RINGING,0,28,28,2,1,SoundMST/Chime_A.wav,SIMILAR,,
,,,,,,,,,,,,,,55b9a9b0fdf99b6906d2aba4,65,2021-03-25_02h12.05.408,CombinedMST_OA,2020.2.10,Win32,60,,,,,,,,,,,,,,,,,,,,,,,,,,,,,,,,,,,,,,,,,,,,,,,,,,,,,,,,,,,,,,,,,,,,,,,,,,,,,,,,,,,,,,,,,,,,,,,,,,,,,return,5.541, APPLAUSE,0,29,29,47,1,SoundMST/Clap_B.wav,SIMILAR,,
,,,,,,,,,,,,,,55b9a9b0fdf99b6906d2aba4,65,2021-03-25_02h12.05.408,CombinedMST_OA,2020.2.10,Win32,60,,,,,,,,,,,,,,,,,,,,,,,,,,,,,,,,,,,,,,,,,,,,,,,,,,,,,,,,,,,,,,,,,,,,,,,,,,,,,,,,,,,,,,,,,,,,,,,,,,,,,return,5.348, SNORING,0,30,30,10,1,SoundMST/Snore_E.wav,SIMILAR,,
,,,,,,,,,,,,,,55b9a9b0fdf99b6906d2aba4,65,2021-03-25_02h12.05.408,CombinedMST_OA,2020.2.10,Win32,60,,,,,,,,,,,,,,,,,,,,,,,,,,,,,,,,,,,,,,,,,,,,,,,,,,,,,,,,,,,,,,,,,,,,,,,,,,,,,,,,,,,,,,,,,,,,,,,,,,,,,return,16.076, PENCIL SCRAPING,0,31,31,27,1,SoundMST/Writing_A.wav,SIMILAR,,
,,,,,,,,,,,,,,55b9a9b0fdf99b6906d2aba4,65,2021-03-25_02h12.05.408,CombinedMST_OA,2020.2.10,Win32,60,,,,,,,,,,,,,,,,,,,,,,,,,,,,,,,,,,,,,,,,,,,,,,,,,,,,,,,,,,,,,,,,,,,,,,,,,,,,,,,,,,,,,,,,,,,,,,,,,,,,,return,8.043, TRUMPET SOUNDING,0,32,32,63,1,SoundMST/Trumpet_B.wav,SAME,,
,,,,,,,,,,,,,,55b9a9b0fdf99b6906d2aba4,65,2021-03-25_02h12.05.408,CombinedMST_OA,2020.2.10,Win32,60,,,,,,,,,,,,,,,,,,,,,,,,,,,,,,,,,,,,,,,,,,,,,,,,,,,,,,,,,,,,,,,,,,,,,,,,,,,,,,,,,,,,,,,,,,,,,,,,,,,,,return,9.119, CROW CROWING,0,33,33,39,1,SoundMST/Crow_B.wav,SIMILAR,,
,,,,,,,,,,,,,,55b9a9b0fdf99b6906d2aba4,65,2021-03-25_02h12.05.408,CombinedMST_OA,2020.2.10,Win32,60,,,,,,,,,,,,,,,,,,,,,,,,,,,,,,,,,,,,,,,,,,,,,,,,,,,,,,,,,,,,,,,,,,,,,,,,,,,,,,,,,,,,,,,,,,,,,,,,,,,,,return,9.105, GUITAR BEING STRUMMED,0,34,34,59,1,SoundMST/Guitar_B.wav,SAME,,
,,,,,,,,,,,,,,55b9a9b0fdf99b6906d2aba4,65,2021-03-25_02h12.05.408,CombinedMST_OA,2020.2.10,Win32,60,,,,,,,,,,,,,,,,,,,,,,,,,,,,,,,,,,,,,,,,,,,,,,,,,,,,,,,,,,,,,,,,,,,,,,,,,,,,,,,,,,,,,,,,,,,,,,,,,,,,,return,13.87, ELEPHANT TRUMPETING,0,35,35,24,1,SoundMST/Elephant_C.wav,SIMILAR,,
,,,,,,,,,,,,,,55b9a9b0fdf99b6906d2aba4,65,2021-03-25_02h12.05.408,CombinedMST_OA,2020.2.10,Win32,60,,,,,,,,,,,,,,,,,,,,,,,,,,,,,,,,,,,,,,,,,,,,,,,,,,,,,,,,,,,,,,,,,,,,,,,,,,,,,,,,,,,,,,,,,,,,,,,,,,,,,return,11.59, ELEPHANT TRUMPETING,0,36,36,0,1,SoundMST/Elephant_A.wav,SIMILAR,,
,,,,,,,,,,,,,,55b9a9b0fdf99b6906d2aba4,65,2021-03-25_02h12.05.408,CombinedMST_OA,2020.2.10,Win32,60,,,,,,,,,,,,,,,,,,,,,,,,,,,,,,,,,,,,,,,,,,,,,,,,,,,,,,,,,,,,,,,,,,,,,,,,,,,,,,,,,,,,,,,,,,,,,,,,,,,,,return,5.876, SNORING,0,37,37,34,1,SoundMST/Snore_D.wav,SIMILAR,,
,,,,,,,,,,,,,,55b9a9b0fdf99b6906d2aba4,65,2021-03-25_02h12.05.408,CombinedMST_OA,2020.2.10,Win32,60,,,,,,,,,,,,,,,,,,,,,,,,,,,,,,,,,,,,,,,,,,,,,,,,,,,,,,,,,,,,,,,,,,,,,,,,,,,,,,,,,,,,,,,,,,,,,,,,,,,,,return,9.376, PRINTER,0,38,38,83,1,SoundMST/Printer.wav,SAME,,
,,,,,,,,,,,,,,55b9a9b0fdf99b6906d2aba4,65,2021-03-25_02h12.05.408,CombinedMST_OA,2020.2.10,Win32,60,,,,,,,,,,,,,,,,,,,,,,,,,,,,,,,,,,,,,,,,,,,,,,,,,,,,,,,,,,,,,,,,,,,,,,,,,,,,,,,,,,,,,,,,,,,,,,,,,,,,,return,7.04, SIREN,0,39,39,14,1,SoundMST/Siren_A.wav,SIMILAR,,
,,,,,,,,,,,,,,55b9a9b0fdf99b6906d2aba4,65,2021-03-25_02h12.05.408,CombinedMST_OA,2020.2.10,Win32,60,,,,,,,,,,,,,,,,,,,,,,,,,,,,,,,,,,,,,,,,,,,,,,,,,,,,,,,,,,,,,,,,,,,,,,,,,,,,,,,,,,,,,,,,,,,,,,,,,,,,,return,5.813, THUNDER,0,40,40,48,1,SoundMST/Thunder_A.wav,SAME,,
,,,,,,,,,,,,,,55b9a9b0fdf99b6906d2aba4,65,2021-03-25_02h12.05.408,CombinedMST_OA,2020.2.10,Win32,60,,,,,,,,,,,,,,,,,,,,,,,,,,,,,,,,,,,,,,,,,,,,,,,,,,,,,,,,,,,,,,,,,,,,,,,,,,,,,,,,,,,,,,,,,,,,,,,,,,,,,return,5.92, LAUGHTER,0,41,41,9,1,SoundMST/Laugh_D.wav,SIMILAR,,
,,,,,,,,,,,,,,55b9a9b0fdf99b6906d2aba4,65,2021-03-25_02h12.05.408,CombinedMST_OA,2020.2.10,Win32,60,,,,,,,,,,,,,,,,,,,,,,,,,,,,,,,,,,,,,,,,,,,,,,,,,,,,,,,,,,,,,,,,,,,,,,,,,,,,,,,,,,,,,,,,,,,,,,,,,,,,,return,5.555, CHEWING,0,42,42,36,1,SoundMST/Chomp_A.wav,SIMILAR,,
,,,,,,,,,,,,,,55b9a9b0fdf99b6906d2aba4,65,2021-03-25_02h12.05.408,CombinedMST_OA,2020.2.10,Win32,60,,,,,,,,,,,,,,,,,,,,,,,,,,,,,,,,,,,,,,,,,,,,,,,,,,,,,,,,,,,,,,,,,,,,,,,,,,,,,,,,,,,,,,,,,,,,,,,,,,,,,return,8.527, SLEIGH BELLS RINGING,0,43,43,50,1,SoundMST/Sleighbells_B.wav,SAME,,
,,,,,,,,,,,,,,55b9a9b0fdf99b6906d2aba4,65,2021-03-25_02h12.05.408,CombinedMST_OA,2020.2.10,Win32,60,,,,,,,,,,,,,,,,,,,,,,,,,,,,,,,,,,,,,,,,,,,,,,,,,,,,,,,,,,,,,,,,,,,,,,,,,,,,,,,,,,,,,,,,,,,,,,,,,,,,,return,10.364, LIQUID BEING POURED,0,44,44,1,1,SoundMST/Pour_C.wav,SIMILAR,,
,,,,,,,,,,,,,,55b9a9b0fdf99b6906d2aba4,65,2021-03-25_02h12.05.408,CombinedMST_OA,2020.2.10,Win32,60,,,,,,,,,,,,,,,,,,,,,,,,,,,,,,,,,,,,,,,,,,,,,,,,,,,,,,,,,,,,,,,,,,,,,,,,,,,,,,,,,,,,,,,,,,,,,,,,,,,,,return,8.879, BOWLING PINS FALLING,0,45,45,72,1,SoundMST/Bowlingpins.wav,SAME,,
,,,,,,,,,,,,,,55b9a9b0fdf99b6906d2aba4,65,2021-03-25_02h12.05.408,CombinedMST_OA,2020.2.10,Win32,60,,,,,,,,,,,,,,,,,,,,,,,,,,,,,,,,,,,,,,,,,,,,,,,,,,,,,,,,,,,,,,,,,,,,,,,,,,,,,,,,,,,,,,,,,,,,,,,,,,,,,return,7.256, SLURPING,0,46,46,66,1,SoundMST/Slurp.wav,SAME,,
,,,,,,,,,,,,,,55b9a9b0fdf99b6906d2aba4,65,2021-03-25_02h12.05.408,CombinedMST_OA,2020.2.10,Win32,60,,,,,,,,,,,,,,,,,,,,,,,,,,,,,,,,,,,,,,,,,,,,,,,,,,,,,,,,,,,,,,,,,,,,,,,,,,,,,,,,,,,,,,,,,,,,,,,,,,,,,return,8.202, TRAIN WHISTLE,0,47,47,86,1,SoundMST/Steam.wav,SAME,,
,,,,,,,,,,,,,,55b9a9b0fdf99b6906d2aba4,65,2021-03-25_02h12.05.408,CombinedMST_OA,2020.2.10,Win32,60,,,,,,,,,,,,,,,,,,,,,,,,,,,,,,,,,,,,,,,,,,,,,,,,,,,,,,,,,,,,,,,,,,,,,,,,,,,,,,,,,,,,,,,,,,,,,,,,,,,,,return,11.087, PHONE RINGING,0,48,48,37,1,SoundMST/Phone_D.wav,SIMILAR,,
,,,,,,,,,,,,,,55b9a9b0fdf99b6906d2aba4,65,2021-03-25_02h12.05.408,CombinedMST_OA,2020.2.10,Win32,60,,,,,,,,,,,,,,,,,,,,,,,,,,,,,,,,,,,,,,,,,,,,,,,,,,,,,,,,,,,,,,,,,,,,,,,,,,,,,,,,,,,,,,,,,,,,,,,,,,,,,return,7.098, WIND HOWLING,0,49,49,55,1,SoundMST/Wind_B.wav,SAME,,
,,,,,,,,,,,,,,55b9a9b0fdf99b6906d2aba4,65,2021-03-25_02h12.05.408,CombinedMST_OA,2020.2.10,Win32,60,,,,,,,,,,,,,,,,,,,,,,,,,,,,,,,,,,,,,,,,,,,,,,,,,,,,,,,,,,,,,,,,,,,,,,,,,,,,,,,,,,,,,,,,,,,,,,,,,,,,,return,16.493, CHANGE BEING PICKED UP,0,50,50,18,1,SoundMST/Coin_E.wav,SIMILAR,,
,,,,,,,,,,,,,,55b9a9b0fdf99b6906d2aba4,65,2021-03-25_02h12.05.408,CombinedMST_OA,2020.2.10,Win32,60,,,,,,,,,,,,,,,,,,,,,,,,,,,,,,,,,,,,,,,,,,,,,,,,,,,,,,,,,,,,,,,,,,,,,,,,,,,,,,,,,,,,,,,,,,,,,,,,,,,,,return,10.084, LION GROWLING,0,51,51,43,1,SoundMST/Growl_G.wav,SIMILAR,,
,,,,,,,,,,,,,,55b9a9b0fdf99b6906d2aba4,65,2021-03-25_02h12.05.408,CombinedMST_OA,2020.2.10,Win32,60,,,,,,,,,,,,,,,,,,,,,,,,,,,,,,,,,,,,,,,,,,,,,,,,,,,,,,,,,,,,,,,,,,,,,,,,,,,,,,,,,,,,,,,,,,,,,,,,,,,,,return,7.165, BIRD CHIRPING,0,52,52,7,1,SoundMST/Bird_A.wav,SIMILAR,,
,,,,,,,,,,,,,,55b9a9b0fdf99b6906d2aba4,65,2021-03-25_02h12.05.408,CombinedMST_OA,2020.2.10,Win32,60,,,,,,,,,,,,,,,,,,,,,,,,,,,,,,,,,,,,,,,,,,,,,,,,,,,,,,,,,,,,,,,,,,,,,,,,,,,,,,,,,,,,,,,,,,,,,,,,,,,,,return,7.282, MAN COUGHING,0,53,53,6,1,SoundMST/Cough_F.wav,SIMILAR,,
,,,,,,,,,,,,,,55b9a9b0fdf99b6906d2aba4,65,2021-03-25_02h12.05.408,CombinedMST_OA,2020.2.10,Win32,60,,,,,,,,,,,,,,,,,,,,,,,,,,,,,,,,,,,,,,,,,,,,,,,,,,,,,,,,,,,,,,,,,,,,,,,,,,,,,,,,,,,,,,,,,,,,,,,,,,,,,return,13.663, SQUEEZE TOY BEING SQUEEZED,0,54,54,58,1,SoundMST/Puff_A.wav,SAME,,
,,,,,,,,,,,,,,55b9a9b0fdf99b6906d2aba4,65,2021-03-25_02h12.05.408,CombinedMST_OA,2020.2.10,Win32,60,,,,,,,,,,,,,,,,,,,,,,,,,,,,,,,,,,,,,,,,,,,,,,,,,,,,,,,,,,,,,,,,,,,,,,,,,,,,,,,,,,,,,,,,,,,,,,,,,,,,,return,11.692, TOILET FLUSHING,0,55,55,29,1,SoundMST/Faucet_A.wav,SIMILAR,,
,,,,,,,,,,,,,,55b9a9b0fdf99b6906d2aba4,65,2021-03-25_02h12.05.408,CombinedMST_OA,2020.2.10,Win32,60,,,,,,,,,,,,,,,,,,,,,,,,,,,,,,,,,,,,,,,,,,,,,,,,,,,,,,,,,,,,,,,,,,,,,,,,,,,,,,,,,,,,,,,,,,,,,,,,,,,,,return,9.776, WHISTLE BEING BLOWN,0,56,56,11,1,SoundMST/Whistle_C.wav,SIMILAR,,
,,,,,,,,,,,,,,55b9a9b0fdf99b6906d2aba4,65,2021-03-25_02h12.05.408,CombinedMST_OA,2020.2.10,Win32,60,,,,,,,,,,,,,,,,,,,,,,,,,,,,,,,,,,,,,,,,,,,,,,,,,,,,,,,,,,,,,,,,,,,,,,,,,,,,,,,,,,,,,,,,,,,,,,,,,,,,,return,10.256, CHICKEN CACKLING,0,57,57,60,1,SoundMST/Chicken_A.wav,SAME,,
,,,,,,,,,,,,,,55b9a9b0fdf99b6906d2aba4,65,2021-03-25_02h12.05.408,CombinedMST_OA,2020.2.10,Win32,60,,,,,,,,,,,,,,,,,,,,,,,,,,,,,,,,,,,,,,,,,,,,,,,,,,,,,,,,,,,,,,,,,,,,,,,,,,,,,,,,,,,,,,,,,,,,,,,,,,,,,return,7.274, BABY COOING,0,58,58,28,1,SoundMST/Baby_F.wav,SIMILAR,,
,,,,,,,,,,,,,,55b9a9b0fdf99b6906d2aba4,65,2021-03-25_02h12.05.408,CombinedMST_OA,2020.2.10,Win32,60,,,,,,,,,,,,,,,,,,,,,,,,,,,,,,,,,,,,,,,,,,,,,,,,,,,,,,,,,,,,,,,,,,,,,,,,,,,,,,,,,,,,,,,,,,,,,,,,,,,,,return,8.223, WHISTLING,0,59,59,67,1,SoundMST/ManWhistle.wav,SAME,,
,,,,,,,,,,,,,,55b9a9b0fdf99b6906d2aba4,65,2021-03-25_02h12.05.408,CombinedMST_OA,2020.2.10,Win32,60,,,,,,,,,,,,,,,,,,,,,,,,,,,,,,,,,,,,,,,,,,,,,,,,,,,,,,,,,,,,,,,,,,,,,,,,,,,,,,,,,,,,,,,,,,,,,,,,,,,,,return,11.104, WATER BUBBLING,0,60,60,21,1,SoundMST/Bubbles_B.wav,SIMILAR,,
,,,,,,,,,,,,,,55b9a9b0fdf99b6906d2aba4,65,2021-03-25_02h12.05.408,CombinedMST_OA,2020.2.10,Win32,60,,,,,,,,,,,,,,,,,,,,,,,,,,,,,,,,,,,,,,,,,,,,,,,,,,,,,,,,,,,,,,,,,,,,,,,,,,,,,,,,,,,,,,,,,,,,,,,,,,,,,return,9.676, AIRPLANE FLYING,0,61,61,62,1,SoundMST/Airplane_B.wav,SAME,,
,,,,,,,,,,,,,,55b9a9b0fdf99b6906d2aba4,65,2021-03-25_02h12.05.408,CombinedMST_OA,2020.2.10,Win32,60,,,,,,,,,,,,,,,,,,,,,,,,,,,,,,,,,,,,,,,,,,,,,,,,,,,,,,,,,,,,,,,,,,,,,,,,,,,,,,,,,,,,,,,,,,,,,,,,,,,,,return,11.066, CUCKOO CLOCK CHIMING,0,62,62,75,1,SoundMST/Cuckoo_A.wav,SAME,,
,,,,,,,,,,,,,,55b9a9b0fdf99b6906d2aba4,65,2021-03-25_02h12.05.408,CombinedMST_OA,2020.2.10,Win32,60,,,,,,,,,,,,,,,,,,,,,,,,,,,,,,,,,,,,,,,,,,,,,,,,,,,,,,,,,,,,,,,,,,,,,,,,,,,,,,,,,,,,,,,,,,,,,,,,,,,,,return,6.473, MAN COUGHING,0,63,63,30,1,SoundMST/Cough_D.wav,SIMILAR,,
,,,,,,,,,,,,,,55b9a9b0fdf99b6906d2aba4,65,2021-03-25_02h12.05.408,CombinedMST_OA,2020.2.10,Win32,60,,,,,,,,,,,,,,,,,,,,,,,,,,,,,,,,,,,,,,,,,,,,,,,,,,,,,,,,,,,,,,,,,,,,,,,,,,,,,,,,,,,,,,,,,,,,,,,,,,,,,return,7.113, BIRD CHIRPING,0,64,64,31,1,SoundMST/Bird_E.wav,SIMILAR,,
,,,,,,,,,,,,,,55b9a9b0fdf99b6906d2aba4,65,2021-03-25_02h12.05.408,CombinedMST_OA,2020.2.10,Win32,60,,,,,,,,,,,,,,,,,,,,,,,,,,,,,,,,,,,,,,,,,,,,,,,,,,,,,,,,,,,,,,,,,,,,,,,,,,,,,,,,,,,,,,,,,,,,,,,,,,,,,return,10.344, FROG CROAKING,0,65,65,73,1,SoundMST/Bullfrog.wav,SAME,,
,,,,,,,,,,,,,,55b9a9b0fdf99b6906d2aba4,65,2021-03-25_02h12.05.408,CombinedMST_OA,2020.2.10,Win32,60,,,,,,,,,,,,,,,,,,,,,,,,,,,,,,,,,,,,,,,,,,,,,,,,,,,,,,,,,,,,,,,,,,,,,,,,,,,,,,,,,,,,,,,,,,,,,,,,,,,,,return,7.095, WATER BUBBLING,0,66,66,45,1,SoundMST/Bubbles_A.wav,SIMILAR,,
,,,,,,,,,,,,,,55b9a9b0fdf99b6906d2aba4,65,2021-03-25_02h12.05.408,CombinedMST_OA,2020.2.10,Win32,60,,,,,,,,,,,,,,,,,,,,,,,,,,,,,,,,,,,,,,,,,,,,,,,,,,,,,,,,,,,,,,,,,,,,,,,,,,,,,,,,,,,,,,,,,,,,,,,,,,,,,return,9.869, CHEWING,0,67,67,12,1,SoundMST/Chomp_C.wav,SIMILAR,,
,,,,,,,,,,,,,,55b9a9b0fdf99b6906d2aba4,65,2021-03-25_02h12.05.408,CombinedMST_OA,2020.2.10,Win32,60,,,,,,,,,,,,,,,,,,,,,,,,,,,,,,,,,,,,,,,,,,,,,,,,,,,,,,,,,,,,,,,,,,,,,,,,,,,,,,,,,,,,,,,,,,,,,,,,,,,,,return,12.907, CAMERA SHUTTER,0,68,68,84,1,SoundMST/Camera.wav,SAME,,
,,,,,,,,,,,,,,55b9a9b0fdf99b6906d2aba4,65,2021-03-25_02h12.05.408,CombinedMST_OA,2020.2.10,Win32,60,,,,,,,,,,,,,,,,,,,,,,,,,,,,,,,,,,,,,,,,,,,,,,,,,,,,,,,,,,,,,,,,,,,,,,,,,,,,,,,,,,,,,,,,,,,,,,,,,,,,,return,10.528, HEARTBEAT,0,69,69,56,1,SoundMST/Heartbeat.wav,SAME,,
,,,,,,,,,,,,,,55b9a9b0fdf99b6906d2aba4,65,2021-03-25_02h12.05.408,CombinedMST_OA,2020.2.10,Win32,60,,,,,,,,,,,,,,,,,,,,,,,,,,,,,,,,,,,,,,,,,,,,,,,,,,,,,,,,,,,,,,,,,,,,,,,,,,,,,,,,,,,,,,,,,,,,,,,,,,,,,return,11.948, INSECT BUZZING,0,70,70,53,1,SoundMST/Mosquito_B.wav,SAME,,
,,,,,,,,,,,,,,55b9a9b0fdf99b6906d2aba4,65,2021-03-25_02h12.05.408,CombinedMST_OA,2020.2.10,Win32,60,,,,,,,,,,,,,,,,,,,,,,,,,,,,,,,,,,,,,,,,,,,,,,,,,,,,,,,,,,,,,,,,,,,,,,,,,,,,,,,,,,,,,,,,,,,,,,,,,,,,,return,5.962, COW MOOING,0,71,71,71,1,SoundMST/Cow.wav,SAME,,
,,,,,,,,,,,,,,55b9a9b0fdf99b6906d2aba4,65,2021-03-25_02h12.05.408,CombinedMST_OA,2020.2.10,Win32,60,,,,,,,,,,,,,,,,,,,,,,,,,,,,,,,,,,,,,,,,,,,,,,,,,,,,,,,,,,,,,,,,,,,,,,,,,,,,,,,,,,,,,,,,,,,,,,,,,,,,,return,7.217, MAN SNEEZING,0,72,72,64,1,SoundMST/Sneeze_B.wav,SAME,,
,,,,,,,,,,,,,,55b9a9b0fdf99b6906d2aba4,65,2021-03-25_02h12.05.408,CombinedMST_OA,2020.2.10,Win32,60,,,,,,,,,,,,,,,,,,,,,,,,,,,,,,,,,,,,,,,,,,,,,,,,,,,,,,,,,,,,,,,,,,,,,,,,,,,,,,,,,,,,,,,,,,,,,,,,,,,,,return,17.221, CELLO BEING PLAYED,0,73,73,61,1,SoundMST/Cello.wav,SAME,,
,,,,,,,,,,,,,,55b9a9b0fdf99b6906d2aba4,65,2021-03-25_02h12.05.408,CombinedMST_OA,2020.2.10,Win32,60,,,,,,,,,,,,,,,,,,,,,,,,,,,,,,,,,,,,,,,,,,,,,,,,,,,,,,,,,,,,,,,,,,,,,,,,,,,,,,,,,,,,,,,,,,,,,,,,,,,,,return,9.359, TOILET FLUSHING,0,74,74,51,1,SoundMST/Toilet_B.wav,SAME,,
,,,,,,,,,,,,,,55b9a9b0fdf99b6906d2aba4,65,2021-03-25_02h12.05.408,CombinedMST_OA,2020.2.10,Win32,60,,,,,,,,,,,,,,,,,,,,,,,,,,,,,,,,,,,,,,,,,,,,,,,,,,,,,,,,,,,,,,,,,,,,,,,,,,,,,,,,,,,,,,,,,,,,,,,,,,,,,return,9.517, PIANO BEING PLAYED,0,75,75,77,1,SoundMST/Piano_D.wav,SAME,,
,,,,,,,,,,,,,,55b9a9b0fdf99b6906d2aba4,65,2021-03-25_02h12.05.408,CombinedMST_OA,2020.2.10,Win32,60,,,,,,,,,,,,,,,,,,,,,,,,,,,,,,,,,,,,,,,,,,,,,,,,,,,,,,,,,,,,,,,,,,,,,,,,,,,,,,,,,,,,,,,,,,,,,,,,,,,,,return,14.039, CHANGE BEING SLID,0,76,76,42,1,SoundMST/Coin_D.wav,SIMILAR,,
,,,,,,,,,,,,,,55b9a9b0fdf99b6906d2aba4,65,2021-03-25_02h12.05.408,CombinedMST_OA,2020.2.10,Win32,60,,,,,,,,,,,,,,,,,,,,,,,,,,,,,,,,,,,,,,,,,,,,,,,,,,,,,,,,,,,,,,,,,,,,,,,,,,,,,,,,,,,,,,,,,,,,,,,,,,,,,return,8.1, FIREWORKS,0,77,77,78,1,SoundMST/Fireworks.wav,SAME,,
,,,,,,,,,,,,,,55b9a9b0fdf99b6906d2aba4,65,2021-03-25_02h12.05.408,CombinedMST_OA,2020.2.10,Win32,60,,,,,,,,,,,,,,,,,,,,,,,,,,,,,,,,,,,,,,,,,,,,,,,,,,,,,,,,,,,,,,,,,,,,,,,,,,,,,,,,,,,,,,,,,,,,,,,,,,,,,return,7.109, SHEEP BLEATING,0,78,78,44,1,SoundMST/Goat_B.wav,SIMILAR,,
,,,,,,,,,,,,,,55b9a9b0fdf99b6906d2aba4,65,2021-03-25_02h12.05.408,CombinedMST_OA,2020.2.10,Win32,60,,,,,,,,,,,,,,,,,,,,,,,,,,,,,,,,,,,,,,,,,,,,,,,,,,,,,,,,,,,,,,,,,,,,,,,,,,,,,,,,,,,,,,,,,,,,,,,,,,,,,return,8.788, GLASS CLINKING,0,79,79,57,1,SoundMST/IceDrop.wav,SAME,,
,,,,,,,,,,,,,,55b9a9b0fdf99b6906d2aba4,65,2021-03-25_02h12.05.408,CombinedMST_OA,2020.2.10,Win32,60,,,,,,,,,,,,,,,,,,,,,,,,,,,,,,,,,,,,,,,,,,,,,,,,,,,,,,,,,,,,,,,,,,,,,,,,,,,,,,,,,,,,,,,,,,,,,,,,,,,,,return,7.002, CAT MEOWING,0,80,80,65,1,SoundMST/Cat_A.wav,SAME,,
,,,,,,,,,,,,,,55b9a9b0fdf99b6906d2aba4,65,2021-03-25_02h12.05.408,CombinedMST_OA,2020.2.10,Win32,60,,,,,,,,,,,,,,,,,,,,,,,,,,,,,,,,,,,,,,,,,,,,,,,,,,,,,,,,,,,,,,,,,,,,,,,,,,,,,,,,,,,,,,,,,,,,,,,,,,,,,return,16.858, SHOES WALKING ACROSS A WOOD FLOOR,0,81,81,16,1,SoundMST/Footsteps_F.wav,SIMILAR,,
,,,,,,,,,,,,,,55b9a9b0fdf99b6906d2aba4,65,2021-03-25_02h12.05.408,CombinedMST_OA,2020.2.10,Win32,60,,,,,,,,,,,,,,,,,,,,,,,,,,,,,,,,,,,,,,,,,,,,,,,,,,,,,,,,,,,,,,,,,,,,,,,,,,,,,,,,,,,,,,,,,,,,,,,,,,,,,return,7.401, BAGPIPES,0,82,82,69,1,SoundMST/Bagpipe.wav,SAME,,
,,,,,,,,,,,,,,55b9a9b0fdf99b6906d2aba4,65,2021-03-25_02h12.05.408,CombinedMST_OA,2020.2.10,Win32,60,,,,,,,,,,,,,,,,,,,,,,,,,,,,,,,,,,,,,,,,,,,,,,,,,,,,,,,,,,,,,,,,,,,,,,,,,,,,,,,,,,,,,,,,,,,,,,,,,,,,,return,6.153, VELCRO,0,83,83,81,1,SoundMST/PaperRip.wav,SAME,,
,,,,,,,,,,,,,,55b9a9b0fdf99b6906d2aba4,65,2021-03-25_02h12.05.408,CombinedMST_OA,2020.2.10,Win32,60,,,,,,,,,,,,,,,,,,,,,,,,,,,,,,,,,,,,,,,,,,,,,,,,,,,,,,,,,,,,,,,,,,,,,,,,,,,,,,,,,,,,,,,,,,,,,,,,,,,,,return,7.359, HAMMERING,0,84,84,76,1,SoundMST/Hammer_A.wav,SAME,,
,,,,,,,,,,,,,,55b9a9b0fdf99b6906d2aba4,65,2021-03-25_02h12.05.408,CombinedMST_OA,2020.2.10,Win32,60,,,,,,,,,,,,,,,,,,,,,,,,,,,,,,,,,,,,,,,,,,,,,,,,,,,,,,,,,,,,,,,,,,,,,,,,,,,,,,,,,,,,,,,,,,,,,,,,,,,,,return,16.66, CHALK SCRAPED ON CHALKBOARD,0,85,85,3,1,SoundMST/Writing_C.wav,SIMILAR,,
,,,,,,,,,,,,,,55b9a9b0fdf99b6906d2aba4,65,2021-03-25_02h12.05.408,CombinedMST_OA,2020.2.10,Win32,60,,,,,,,,,,,,,,,,,,,,,,,,,,,,,,,,,,,,,,,,,,,,,,,,,,,,,,,,,,,,,,,,,,,,,,,,,,,,,,,,,,,,,,,,,,,,,,,,,,,,,return,9.616, BUZZER,0,86,86,52,1,SoundMST/Buzz.wav,SAME,,
,,,,,,,,,,,,,,55b9a9b0fdf99b6906d2aba4,65,2021-03-25_02h12.05.408,CombinedMST_OA,2020.2.10,Win32,60,,,,,,,,,,,,,,,,,,,,,,,,,,,,,,,,,,,,,,,,,,,,,,,,,,,,,,,,,,,,,,,,,,,,,,,,,,,,,,,,,,,,,,,,,,,,,,,,,,,,,return,8.882, TELEPHONE RINGING,0,87,87,13,1,SoundMST/Phone_E.wav,SIMILAR,,
,,,,,,,,,,,,,,55b9a9b0fdf99b6906d2aba4,65,2021-03-25_02h12.05.408,CombinedMST_OA,2020.2.10,Win32,60,,,,,,,,,,,,,,,,,,,,,,,,,,,,,,,,,,,,,,,,,,,,,,,,,,,,,,,,,,,,,,,,,,,,,,,,,,,,,,,,,,,,,,,,,,,,,,,,,,,,,,,,,,,,,,,space,60.092
