ContinueResp.keys,ContinueResp.rt,WelcomeContinueKey2.keys,WelcomeContinueKey2.rt,PracticeRespKey2.keys,PracticeRespKey2.rt,Practice_resp.keys,Practice_resp.rt,PracticeTrials.thisRepN,PracticeTrials.thisTrialN,PracticeTrials.thisN,PracticeTrials.thisIndex,PracticeTrials.ran,SoundFile,Type,Correct,participant,date,expName,psychopyVersion,OS,frameRate,StartTast.keys,StartTast.rt,MST_resp.keys,MST_resp.corr,MST_resp.rt,trials.thisRepN,trials.thisTrialN,trials.thisN,trials.thisIndex,trials.ran,File,WordCorrect,Correct_type,WordType,Condition,WordTask.thisRepN,WordTask.thisTrialN,WordTask.thisN,WordTask.thisIndex,WordTask.ran,End1Cont.keys,End1Cont.rt,key_resp.keys,key_resp.rt,PracticeRespKey2II.keys,PracticeRespKey2II.rt,PracticeSoundKey.keys,PracticeSoundKey.rt,SoundPracticeLoop.thisRepN,SoundPracticeLoop.thisTrialN,SoundPracticeLoop.thisN,SoundPracticeLoop.thisIndex,SoundPracticeLoop.ran,SoundMST_File,SoundCorrect,Correct2,SoundType,Trial,MSTSoundStrtKey.keys,MSTSoundStrtKey.rt,MSTSoundKey.keys,MSTSoundKey.corr,MSTSoundKey.rt,MSTSoundLoop.thisRepN,MSTSoundLoop.thisTrialN,MSTSoundLoop.thisN,MSTSoundLoop.thisIndex,MSTSoundLoop.ran,SoundTask.thisRepN,SoundTask.thisTrialN,SoundTask.thisN,SoundTask.thisIndex,SoundTask.ran,SimContKey.keys,SimContKey.rt,SimilarityRatingKey.keys,SimilarityRatingKey.rt,SimilarityRating.thisRepN,SimilarityRating.thisTrialN,SimilarityRating.thisN,SimilarityRating.thisIndex,SimilarityRating.ran,Sound1,Sound2,PairType,Welcome4End.keys,Welcome4End.rt,LabelingKey.keys,LabelingKey.rt,SoundLabelLoop.thisRepN,SoundLabelLoop.thisTrialN,SoundLabelLoop.thisN,SoundLabelLoop.thisIndex,SoundLabelLoop.ran
space,11.988,space,8.234,space,12.848,space,2.063,0,0,0,0,1,Training/FO_YI_LAY.wav,NEW,2,3,2021-08-26_09h55.12.332,Session1,2020.2.10,Win32,60,,,,,,,,,,,,,,,,,,,,,,,,,,,,,,,,,,,,,,,,,,,,,,,,,,,,,,,,,,,,,,,,,,,,,,,,,,
,,,,space,9.27,space,3.616,0,1,1,1,1,Training/FO_YI_LAY.wav,OLD,1,3,2021-08-26_09h55.12.332,Session1,2020.2.10,Win32,60,,,,,,,,,,,,,,,,,,,,,,,,,,,,,,,,,,,,,,,,,,,,,,,,,,,,,,,,,,,,,,,,,,,,,,,,,,
,,,,space,3.486,space,1.121,0,2,2,2,1,Training/YO_BU_JAY.wav,NEW,2,3,2021-08-26_09h55.12.332,Session1,2020.2.10,Win32,60,,,,,,,,,,,,,,,,,,,,,,,,,,,,,,,,,,,,,,,,,,,,,,,,,,,,,,,,,,,,,,,,,,,,,,,,,,
,,,,space,7.2,space,1.168,0,3,3,3,1,Training/JAY_YO_BU.wav,SIMILAR,2,3,2021-08-26_09h55.12.332,Session1,2020.2.10,Win32,60,,,,,,,,,,,,,,,,,,,,,,,,,,,,,,,,,,,,,,,,,,,,,,,,,,,,,,,,,,,,,,,,,,,,,,,,,,
,,,,space,3.851,space,1.401,0,4,4,4,1,Training/FO_YI_LAY.wav,OLD,1,3,2021-08-26_09h55.12.332,Session1,2020.2.10,Win32,60,,,,,,,,,,,,,,,,,,,,,,,,,,,,,,,,,,,,,,,,,,,,,,,,,,,,,,,,,,,,,,,,,,,,,,,,,,
<<<<<<< HEAD
,,,,,,,,,,,,,,,,3,2021-08-26_09h55.12.332,Session1,2020.2.10,Win32,60,space,15.674,2,1,2.098,0,0,0,0,1,TestWords/HA_SI_JAI.wav,2,NEW,NEW,A,,,,,,,,,,,,,,,,,,,,,,,,,,,,,,,,,,,,,,,,,,,,,,,,,,,,,,,,,,,
=======
,,,,,,,,,,,,,,,,3,2021-08-26_09h55.12.332,Session1,2020.2.10,Win32,60,space,15.674,1,0,2.098,0,0,0,0,1,TestWords/HA_SI_JAI.wav,2,NEW,NEW,A,,,,,,,,,,,,,,,,,,,,,,,,,,,,,,,,,,,,,,,,,,,,,,,,,,,,,,,,,,,
>>>>>>> 3c6b67de205bc033bdd7ba55cb73065ed20c0e27
,,,,,,,,,,,,,,,,3,2021-08-26_09h55.12.332,Session1,2020.2.10,Win32,60,,,2,1,1.889,0,1,1,1,1,TestWords/KO_SU_FAI.wav,2,NEW,NEW,A,,,,,,,,,,,,,,,,,,,,,,,,,,,,,,,,,,,,,,,,,,,,,,,,,,,,,,,,,,,
,,,,,,,,,,,,,,,,3,2021-08-26_09h55.12.332,Session1,2020.2.10,Win32,60,,,2,1,2.07,0,2,2,2,1,TestWords/TAI_GI_SA.wav,2,NEW,NEW,A,,,,,,,,,,,,,,,,,,,,,,,,,,,,,,,,,,,,,,,,,,,,,,,,,,,,,,,,,,,
,,,,,,,,,,,,,,,,3,2021-08-26_09h55.12.332,Session1,2020.2.10,Win32,60,,,1,0,2.939,0,3,3,3,1,TestWords/KAI_LAY_TA.wav,2,NEW,NEW,A,,,,,,,,,,,,,,,,,,,,,,,,,,,,,,,,,,,,,,,,,,,,,,,,,,,,,,,,,,,
,,,,,,,,,,,,,,,,3,2021-08-26_09h55.12.332,Session1,2020.2.10,Win32,60,,,2,1,1.411,0,4,4,4,1,TestWords/RAY_PA_TI.wav,2,NEW,NEW,A,,,,,,,,,,,,,,,,,,,,,,,,,,,,,,,,,,,,,,,,,,,,,,,,,,,,,,,,,,,
,,,,,,,,,,,,,,,,3,2021-08-26_09h55.12.332,Session1,2020.2.10,Win32,60,,,1,1,1.294,0,5,5,5,1,TestWords/KO_SU_FAI.wav,1,OLD,OLD,A,,,,,,,,,,,,,,,,,,,,,,,,,,,,,,,,,,,,,,,,,,,,,,,,,,,,,,,,,,,
,,,,,,,,,,,,,,,,3,2021-08-26_09h55.12.332,Session1,2020.2.10,Win32,60,,,1,0,2.472,0,6,6,6,1,TestWords/TAI_SA_GI.wav,2,NEW,SIMILAR,A,,,,,,,,,,,,,,,,,,,,,,,,,,,,,,,,,,,,,,,,,,,,,,,,,,,,,,,,,,,
,,,,,,,,,,,,,,,,3,2021-08-26_09h55.12.332,Session1,2020.2.10,Win32,60,,,1,1,3.255,0,7,7,7,1,TestWords/KAI_LAY_TA.wav,1,OLD,OLD,A,,,,,,,,,,,,,,,,,,,,,,,,,,,,,,,,,,,,,,,,,,,,,,,,,,,,,,,,,,,
,,,,,,,,,,,,,,,,3,2021-08-26_09h55.12.332,Session1,2020.2.10,Win32,60,,,2,1,1.824,0,8,8,8,1,TestWords/NA_WAI_VU.wav,2,NEW,NEW,A,,,,,,,,,,,,,,,,,,,,,,,,,,,,,,,,,,,,,,,,,,,,,,,,,,,,,,,,,,,
,,,,,,,,,,,,,,,,3,2021-08-26_09h55.12.332,Session1,2020.2.10,Win32,60,,,1,1,3.221,0,9,9,9,1,TestWords/KO_SU_FAI.wav,1,OLD,OLD,A,,,,,,,,,,,,,,,,,,,,,,,,,,,,,,,,,,,,,,,,,,,,,,,,,,,,,,,,,,,
,,,,,,,,,,,,,,,,3,2021-08-26_09h55.12.332,Session1,2020.2.10,Win32,60,,,1,1,1.39,0,10,10,10,1,TestWords/RAY_PA_TI.wav,1,OLD,OLD,A,,,,,,,,,,,,,,,,,,,,,,,,,,,,,,,,,,,,,,,,,,,,,,,,,,,,,,,,,,,
,,,,,,,,,,,,,,,,3,2021-08-26_09h55.12.332,Session1,2020.2.10,Win32,60,,,2,1,1.856,0,11,11,11,1,TestWords/GI_SA_TAI.wav,2,NEW,SIMILAR,A,,,,,,,,,,,,,,,,,,,,,,,,,,,,,,,,,,,,,,,,,,,,,,,,,,,,,,,,,,,
,,,,,,,,,,,,,,,,3,2021-08-26_09h55.12.332,Session1,2020.2.10,Win32,60,,,2,1,2.922,0,12,12,12,1,TestWords/WAI_VU_NA.wav,2,NEW,SIMILAR,A,,,,,,,,,,,,,,,,,,,,,,,,,,,,,,,,,,,,,,,,,,,,,,,,,,,,,,,,,,,
,,,,,,,,,,,,,,,,3,2021-08-26_09h55.12.332,Session1,2020.2.10,Win32,60,,,1,1,2.107,0,13,13,13,1,TestWords/KAI_LAY_TA.wav,1,OLD,OLD,A,,,,,,,,,,,,,,,,,,,,,,,,,,,,,,,,,,,,,,,,,,,,,,,,,,,,,,,,,,,
,,,,,,,,,,,,,,,,3,2021-08-26_09h55.12.332,Session1,2020.2.10,Win32,60,,,1,0,4.346,0,14,14,14,1,TestWords/SI_VAI_CHU.wav,2,NEW,NEW,A,,,,,,,,,,,,,,,,,,,,,,,,,,,,,,,,,,,,,,,,,,,,,,,,,,,,,,,,,,,
,,,,,,,,,,,,,,,,3,2021-08-26_09h55.12.332,Session1,2020.2.10,Win32,60,,,1,0,3.793,0,15,15,15,1,TestWords/GI_TAI_SA.wav,2,NEW,SIMILAR,A,,,,,,,,,,,,,,,,,,,,,,,,,,,,,,,,,,,,,,,,,,,,,,,,,,,,,,,,,,,
,,,,,,,,,,,,,,,,3,2021-08-26_09h55.12.332,Session1,2020.2.10,Win32,60,,,2,0,2.498,0,16,16,16,1,TestWords/KO_SU_FAI.wav,1,OLD,OLD,A,,,,,,,,,,,,,,,,,,,,,,,,,,,,,,,,,,,,,,,,,,,,,,,,,,,,,,,,,,,
,,,,,,,,,,,,,,,,3,2021-08-26_09h55.12.332,Session1,2020.2.10,Win32,60,,,2,1,2.315,0,17,17,17,1,TestWords/DA_CHU_VAI.wav,2,NEW,NEW,A,,,,,,,,,,,,,,,,,,,,,,,,,,,,,,,,,,,,,,,,,,,,,,,,,,,,,,,,,,,
,,,,,,,,,,,,,,,,3,2021-08-26_09h55.12.332,Session1,2020.2.10,Win32,60,,,1,1,1.875,0,18,18,18,1,TestWords/RAY_PA_TI.wav,1,OLD,OLD,A,,,,,,,,,,,,,,,,,,,,,,,,,,,,,,,,,,,,,,,,,,,,,,,,,,,,,,,,,,,
,,,,,,,,,,,,,,,,3,2021-08-26_09h55.12.332,Session1,2020.2.10,Win32,60,,,1,1,3.092,0,19,19,19,1,TestWords/KAI_LAY_TA.wav,1,OLD,OLD,A,,,,,,,,,,,,,,,,,,,,,,,,,,,,,,,,,,,,,,,,,,,,,,,,,,,,,,,,,,,
,,,,,,,,,,,,,,,,3,2021-08-26_09h55.12.332,Session1,2020.2.10,Win32,60,,,2,1,1.824,0,20,20,20,1,TestWords/WAI_NA_VU.wav,2,NEW,SIMILAR,A,,,,,,,,,,,,,,,,,,,,,,,,,,,,,,,,,,,,,,,,,,,,,,,,,,,,,,,,,,,
,,,,,,,,,,,,,,,,3,2021-08-26_09h55.12.332,Session1,2020.2.10,Win32,60,,,1,1,3.54,0,21,21,21,1,TestWords/KO_SU_FAI.wav,1,OLD,OLD,A,,,,,,,,,,,,,,,,,,,,,,,,,,,,,,,,,,,,,,,,,,,,,,,,,,,,,,,,,,,
,,,,,,,,,,,,,,,,3,2021-08-26_09h55.12.332,Session1,2020.2.10,Win32,60,,,1,0,2.732,0,22,22,22,1,TestWords/SA_TAI_GI.wav,2,NEW,SIMILAR,A,,,,,,,,,,,,,,,,,,,,,,,,,,,,,,,,,,,,,,,,,,,,,,,,,,,,,,,,,,,
,,,,,,,,,,,,,,,,3,2021-08-26_09h55.12.332,Session1,2020.2.10,Win32,60,,,1,1,1.593,0,23,23,23,1,TestWords/RAY_PA_TI.wav,1,OLD,OLD,A,,,,,,,,,,,,,,,,,,,,,,,,,,,,,,,,,,,,,,,,,,,,,,,,,,,,,,,,,,,
,,,,,,,,,,,,,,,,3,2021-08-26_09h55.12.332,Session1,2020.2.10,Win32,60,,,1,0,2.044,0,24,24,24,1,TestWords/VU_NA_WAI.wav,2,NEW,SIMILAR,A,,,,,,,,,,,,,,,,,,,,,,,,,,,,,,,,,,,,,,,,,,,,,,,,,,,,,,,,,,,
,,,,,,,,,,,,,,,,3,2021-08-26_09h55.12.332,Session1,2020.2.10,Win32,60,,,1,1,1.64,0,25,25,25,1,TestWords/KAI_LAY_TA.wav,1,OLD,OLD,A,,,,,,,,,,,,,,,,,,,,,,,,,,,,,,,,,,,,,,,,,,,,,,,,,,,,,,,,,,,
,,,,,,,,,,,,,,,,3,2021-08-26_09h55.12.332,Session1,2020.2.10,Win32,60,,,2,1,4.224,0,26,26,26,1,TestWords/WAI_RO_JU.wav,2,NEW,NEW,A,,,,,,,,,,,,,,,,,,,,,,,,,,,,,,,,,,,,,,,,,,,,,,,,,,,,,,,,,,,
,,,,,,,,,,,,,,,,3,2021-08-26_09h55.12.332,Session1,2020.2.10,Win32,60,,,2,0,6.672,0,27,27,27,1,TestWords/KO_SU_FAI.wav,1,OLD,OLD,A,,,,,,,,,,,,,,,,,,,,,,,,,,,,,,,,,,,,,,,,,,,,,,,,,,,,,,,,,,,
,,,,,,,,,,,,,,,,3,2021-08-26_09h55.12.332,Session1,2020.2.10,Win32,60,,,1,0,1.19,0,28,28,28,1,TestWords/SA_GI_TAI.wav,2,NEW,SIMILAR,A,,,,,,,,,,,,,,,,,,,,,,,,,,,,,,,,,,,,,,,,,,,,,,,,,,,,,,,,,,,
,,,,,,,,,,,,,,,,3,2021-08-26_09h55.12.332,Session1,2020.2.10,Win32,60,,,1,1,1.061,0,29,29,29,1,TestWords/RAY_PA_TI.wav,1,OLD,OLD,A,,,,,,,,,,,,,,,,,,,,,,,,,,,,,,,,,,,,,,,,,,,,,,,,,,,,,,,,,,,
,,,,,,,,,,,,,,,,3,2021-08-26_09h55.12.332,Session1,2020.2.10,Win32,60,,,1,0,3.139,0,30,30,30,1,TestWords/GA_MU_ZI.wav,2,NEW,NEW,A,,,,,,,,,,,,,,,,,,,,,,,,,,,,,,,,,,,,,,,,,,,,,,,,,,,,,,,,,,,
,,,,,,,,,,,,,,,,3,2021-08-26_09h55.12.332,Session1,2020.2.10,Win32,60,,,1,1,1.209,0,31,31,31,1,TestWords/KAI_LAY_TA.wav,1,OLD,OLD,A,,,,,,,,,,,,,,,,,,,,,,,,,,,,,,,,,,,,,,,,,,,,,,,,,,,,,,,,,,,
,,,,,,,,,,,,,,,,3,2021-08-26_09h55.12.332,Session1,2020.2.10,Win32,60,,,1,0,1.739,0,32,32,32,1,TestWords/VU_WAI_NA.wav,2,NEW,SIMILAR,A,,,,,,,,,,,,,,,,,,,,,,,,,,,,,,,,,,,,,,,,,,,,,,,,,,,,,,,,,,,
,,,,,,,,,,,,,,,,3,2021-08-26_09h55.12.332,Session1,2020.2.10,Win32,60,,,1,1,1.312,0,33,33,33,1,TestWords/RAY_PA_TI.wav,1,OLD,OLD,A,,,,,,,,,,,,,,,,,,,,,,,,,,,,,,,,,,,,,,,,,,,,,,,,,,,,,,,,,,,
,,,,,,,,,,,,,,,,3,2021-08-26_09h55.12.332,Session1,2020.2.10,Win32,60,,,2,1,3.625,0,34,34,34,1,TestWords/LI_KAY_BA.wav,2,NEW,NEW,A,,,,,,,,,,,,,,,,,,,,,,,,,,,,,,,,,,,,,,,,,,,,,,,,,,,,,,,,,,,
,,,,,,,,,,,,,,,,3,2021-08-26_09h55.12.332,Session1,2020.2.10,Win32,60,,,2,1,3.392,0,35,35,35,1,TestWords/HI_NAY_VA.wav,2,NEW,NEW,A,,,,,,,,,,,,,,,,,,,,,,,,,,,,,,,,,,,,,,,,,,,,,,,,,,,,,,,,,,,
,,,,,,,,,,,,,,,,3,2021-08-26_09h55.12.332,Session1,2020.2.10,Win32,60,,,1,1,1.723,0,36,36,36,1,TestWords/KO_SU_FAI.wav,1,OLD,OLD,A,,,,,,,,,,,,,,,,,,,,,,,,,,,,,,,,,,,,,,,,,,,,,,,,,,,,,,,,,,,
,,,,,,,,,,,,,,,,3,2021-08-26_09h55.12.332,Session1,2020.2.10,Win32,60,,,1,0,2.807,0,37,37,37,1,TestWords/NA_VU_WAI.wav,2,NEW,SIMILAR,A,,,,,,,,,,,,,,,,,,,,,,,,,,,,,,,,,,,,,,,,,,,,,,,,,,,,,,,,,,,
,,,,,,,,,,,,,,,,3,2021-08-26_09h55.12.332,Session1,2020.2.10,Win32,60,,,2,0,2.673,0,38,38,38,1,TestWords/GA_MU_ZI.wav,1,OLD,OLD,A,,,,,,,,,,,,,,,,,,,,,,,,,,,,,,,,,,,,,,,,,,,,,,,,,,,,,,,,,,,
,,,,,,,,,,,,,,,,3,2021-08-26_09h55.12.332,Session1,2020.2.10,Win32,60,,,1,1,1.766,0,39,39,39,1,TestWords/KAI_LAY_TA.wav,1,OLD,OLD,A,,,,,,,,,,,,,,,,,,,,,,,,,,,,,,,,,,,,,,,,,,,,,,,,,,,,,,,,,,,
,,,,,,,,,,,,,,,,3,2021-08-26_09h55.12.332,Session1,2020.2.10,Win32,60,,,2,1,2.049,0,40,40,40,1,TestWords/DAI_RU_CHI.wav,2,NEW,NEW,A,,,,,,,,,,,,,,,,,,,,,,,,,,,,,,,,,,,,,,,,,,,,,,,,,,,,,,,,,,,
,,,,,,,,,,,,,,,,3,2021-08-26_09h55.12.332,Session1,2020.2.10,Win32,60,,,2,1,4.727,0,41,41,41,1,TestWords/NU_CHAY_SO.wav,2,NEW,NEW,A,,,,,,,,,,,,,,,,,,,,,,,,,,,,,,,,,,,,,,,,,,,,,,,,,,,,,,,,,,,
,,,,,,,,,,,,,,,,3,2021-08-26_09h55.12.332,Session1,2020.2.10,Win32,60,,,1,1,1.372,0,42,42,42,1,TestWords/RAY_PA_TI.wav,1,OLD,OLD,A,,,,,,,,,,,,,,,,,,,,,,,,,,,,,,,,,,,,,,,,,,,,,,,,,,,,,,,,,,,
,,,,,,,,,,,,,,,,3,2021-08-26_09h55.12.332,Session1,2020.2.10,Win32,60,,,2,1,1.956,0,43,43,43,1,TestWords/BA_KAY_LI.wav,2,NEW,SIMILAR,A,,,,,,,,,,,,,,,,,,,,,,,,,,,,,,,,,,,,,,,,,,,,,,,,,,,,,,,,,,,
,,,,,,,,,,,,,,,,3,2021-08-26_09h55.12.332,Session1,2020.2.10,Win32,60,,,1,1,1.689,0,44,44,44,1,TestWords/KO_SU_FAI.wav,1,OLD,OLD,A,,,,,,,,,,,,,,,,,,,,,,,,,,,,,,,,,,,,,,,,,,,,,,,,,,,,,,,,,,,
,,,,,,,,,,,,,,,,3,2021-08-26_09h55.12.332,Session1,2020.2.10,Win32,60,,,1,1,1.773,0,45,45,45,1,TestWords/GA_MU_ZI.wav,1,OLD,OLD,A,,,,,,,,,,,,,,,,,,,,,,,,,,,,,,,,,,,,,,,,,,,,,,,,,,,,,,,,,,,
,,,,,,,,,,,,,,,,3,2021-08-26_09h55.12.332,Session1,2020.2.10,Win32,60,,,1,0,1.324,0,46,46,46,1,TestWords/CHU_LA_PAY.wav,2,NEW,NEW,A,,,,,,,,,,,,,,,,,,,,,,,,,,,,,,,,,,,,,,,,,,,,,,,,,,,,,,,,,,,
,,,,,,,,,,,,,,,,3,2021-08-26_09h55.12.332,Session1,2020.2.10,Win32,60,,,1,1,2.266,0,47,47,47,1,TestWords/KAI_LAY_TA.wav,1,OLD,OLD,A,,,,,,,,,,,,,,,,,,,,,,,,,,,,,,,,,,,,,,,,,,,,,,,,,,,,,,,,,,,
,,,,,,,,,,,,,,,,3,2021-08-26_09h55.12.332,Session1,2020.2.10,Win32,60,,,1,1,4.437,0,48,48,48,1,TestWords/DAI_RU_CHI.wav,1,OLD,OLD,A,,,,,,,,,,,,,,,,,,,,,,,,,,,,,,,,,,,,,,,,,,,,,,,,,,,,,,,,,,,
,,,,,,,,,,,,,,,,3,2021-08-26_09h55.12.332,Session1,2020.2.10,Win32,60,,,1,1,4.134,0,49,49,49,1,TestWords/KO_SU_FAI.wav,1,OLD,OLD,A,,,,,,,,,,,,,,,,,,,,,,,,,,,,,,,,,,,,,,,,,,,,,,,,,,,,,,,,,,,
,,,,,,,,,,,,,,,,3,2021-08-26_09h55.12.332,Session1,2020.2.10,Win32,60,,,1,0,2.953,0,50,50,50,1,TestWords/KAY_LI_BA.wav,2,NEW,SIMILAR,A,,,,,,,,,,,,,,,,,,,,,,,,,,,,,,,,,,,,,,,,,,,,,,,,,,,,,,,,,,,
,,,,,,,,,,,,,,,,3,2021-08-26_09h55.12.332,Session1,2020.2.10,Win32,60,,,1,1,1.384,0,51,51,51,1,TestWords/RAY_PA_TI.wav,1,OLD,OLD,A,,,,,,,,,,,,,,,,,,,,,,,,,,,,,,,,,,,,,,,,,,,,,,,,,,,,,,,,,,,
,,,,,,,,,,,,,,,,3,2021-08-26_09h55.12.332,Session1,2020.2.10,Win32,60,,,1,1,1.287,0,52,52,52,1,TestWords/KAI_LAY_TA.wav,1,OLD,OLD,A,,,,,,,,,,,,,,,,,,,,,,,,,,,,,,,,,,,,,,,,,,,,,,,,,,,,,,,,,,,
,,,,,,,,,,,,,,,,3,2021-08-26_09h55.12.332,Session1,2020.2.10,Win32,60,,,1,0,4.389,0,53,53,53,1,TestWords/HO_NAY_VA.wav,2,NEW,NEW,A,,,,,,,,,,,,,,,,,,,,,,,,,,,,,,,,,,,,,,,,,,,,,,,,,,,,,,,,,,,
,,,,,,,,,,,,,,,,3,2021-08-26_09h55.12.332,Session1,2020.2.10,Win32,60,,,2,0,3.905,0,54,54,54,1,TestWords/GA_MU_ZI.wav,1,OLD,OLD,A,,,,,,,,,,,,,,,,,,,,,,,,,,,,,,,,,,,,,,,,,,,,,,,,,,,,,,,,,,,
,,,,,,,,,,,,,,,,3,2021-08-26_09h55.12.332,Session1,2020.2.10,Win32,60,,,1,1,2.894,0,55,55,55,1,TestWords/DAI_RU_CHI.wav,1,OLD,OLD,A,,,,,,,,,,,,,,,,,,,,,,,,,,,,,,,,,,,,,,,,,,,,,,,,,,,,,,,,,,,
,,,,,,,,,,,,,,,,3,2021-08-26_09h55.12.332,Session1,2020.2.10,Win32,60,,,2,1,4.501,0,56,56,56,1,TestWords/MO_PU_DAY.wav,2,NEW,NEW,A,,,,,,,,,,,,,,,,,,,,,,,,,,,,,,,,,,,,,,,,,,,,,,,,,,,,,,,,,,,
,,,,,,,,,,,,,,,,3,2021-08-26_09h55.12.332,Session1,2020.2.10,Win32,60,,,1,1,1.875,0,57,57,57,1,TestWords/KO_SU_FAI.wav,1,OLD,OLD,A,,,,,,,,,,,,,,,,,,,,,,,,,,,,,,,,,,,,,,,,,,,,,,,,,,,,,,,,,,,
,,,,,,,,,,,,,,,,3,2021-08-26_09h55.12.332,Session1,2020.2.10,Win32,60,,,1,0,2.13,0,58,58,58,1,TestWords/KAY_BA_LI.wav,2,NEW,SIMILAR,A,,,,,,,,,,,,,,,,,,,,,,,,,,,,,,,,,,,,,,,,,,,,,,,,,,,,,,,,,,,
,,,,,,,,,,,,,,,,3,2021-08-26_09h55.12.332,Session1,2020.2.10,Win32,60,,,1,1,1.286,0,59,59,59,1,TestWords/RAY_PA_TI.wav,1,OLD,OLD,A,,,,,,,,,,,,,,,,,,,,,,,,,,,,,,,,,,,,,,,,,,,,,,,,,,,,,,,,,,,
,,,,,,,,,,,,,,,,3,2021-08-26_09h55.12.332,Session1,2020.2.10,Win32,60,,,1,1,0.961,0,60,60,60,1,TestWords/KAI_LAY_TA.wav,1,OLD,OLD,A,,,,,,,,,,,,,,,,,,,,,,,,,,,,,,,,,,,,,,,,,,,,,,,,,,,,,,,,,,,
,,,,,,,,,,,,,,,,3,2021-08-26_09h55.12.332,Session1,2020.2.10,Win32,60,,,1,1,3.874,0,61,61,61,1,TestWords/GA_MU_ZI.wav,1,OLD,OLD,A,,,,,,,,,,,,,,,,,,,,,,,,,,,,,,,,,,,,,,,,,,,,,,,,,,,,,,,,,,,
,,,,,,,,,,,,,,,,3,2021-08-26_09h55.12.332,Session1,2020.2.10,Win32,60,,,2,1,9.339,0,62,62,62,1,TestWords/DAY_PU_MO.wav,2,NEW,SIMILAR,A,,,,,,,,,,,,,,,,,,,,,,,,,,,,,,,,,,,,,,,,,,,,,,,,,,,,,,,,,,,
,,,,,,,,,,,,,,,,3,2021-08-26_09h55.12.332,Session1,2020.2.10,Win32,60,,,1,1,1.195,0,63,63,63,1,TestWords/DAI_RU_CHI.wav,1,OLD,OLD,A,,,,,,,,,,,,,,,,,,,,,,,,,,,,,,,,,,,,,,,,,,,,,,,,,,,,,,,,,,,
,,,,,,,,,,,,,,,,3,2021-08-26_09h55.12.332,Session1,2020.2.10,Win32,60,,,1,0,1.854,0,64,64,64,1,TestWords/LI_BA_KAY.wav,2,NEW,SIMILAR,A,,,,,,,,,,,,,,,,,,,,,,,,,,,,,,,,,,,,,,,,,,,,,,,,,,,,,,,,,,,
,,,,,,,,,,,,,,,,3,2021-08-26_09h55.12.332,Session1,2020.2.10,Win32,60,,,1,1,1.327,0,65,65,65,1,TestWords/KAI_LAY_TA.wav,1,OLD,OLD,A,,,,,,,,,,,,,,,,,,,,,,,,,,,,,,,,,,,,,,,,,,,,,,,,,,,,,,,,,,,
,,,,,,,,,,,,,,,,3,2021-08-26_09h55.12.332,Session1,2020.2.10,Win32,60,,,1,1,1.553,0,66,66,66,1,TestWords/KO_SU_FAI.wav,1,OLD,OLD,A,,,,,,,,,,,,,,,,,,,,,,,,,,,,,,,,,,,,,,,,,,,,,,,,,,,,,,,,,,,
,,,,,,,,,,,,,,,,3,2021-08-26_09h55.12.332,Session1,2020.2.10,Win32,60,,,1,0,3.548,0,67,67,67,1,TestWords/DAY_MO_PU.wav,2,NEW,SIMILAR,A,,,,,,,,,,,,,,,,,,,,,,,,,,,,,,,,,,,,,,,,,,,,,,,,,,,,,,,,,,,
,,,,,,,,,,,,,,,,3,2021-08-26_09h55.12.332,Session1,2020.2.10,Win32,60,,,1,1,1.492,0,68,68,68,1,TestWords/RAY_PA_TI.wav,1,OLD,OLD,A,,,,,,,,,,,,,,,,,,,,,,,,,,,,,,,,,,,,,,,,,,,,,,,,,,,,,,,,,,,
,,,,,,,,,,,,,,,,3,2021-08-26_09h55.12.332,Session1,2020.2.10,Win32,60,,,1,1,3.087,0,69,69,69,1,TestWords/GA_MU_ZI.wav,1,OLD,OLD,A,,,,,,,,,,,,,,,,,,,,,,,,,,,,,,,,,,,,,,,,,,,,,,,,,,,,,,,,,,,
,,,,,,,,,,,,,,,,3,2021-08-26_09h55.12.332,Session1,2020.2.10,Win32,60,,,1,0,1.089,0,70,70,70,1,TestWords/BA_LI_KAY.wav,2,NEW,SIMILAR,A,,,,,,,,,,,,,,,,,,,,,,,,,,,,,,,,,,,,,,,,,,,,,,,,,,,,,,,,,,,
,,,,,,,,,,,,,,,,3,2021-08-26_09h55.12.332,Session1,2020.2.10,Win32,60,,,1,1,1.154,0,71,71,71,1,TestWords/DAI_RU_CHI.wav,1,OLD,OLD,A,,,,,,,,,,,,,,,,,,,,,,,,,,,,,,,,,,,,,,,,,,,,,,,,,,,,,,,,,,,
,,,,,,,,,,,,,,,,3,2021-08-26_09h55.12.332,Session1,2020.2.10,Win32,60,,,2,1,3.706,0,72,72,72,1,TestWords/LU_HAI_BO.wav,2,NEW,NEW,A,,,,,,,,,,,,,,,,,,,,,,,,,,,,,,,,,,,,,,,,,,,,,,,,,,,,,,,,,,,
,,,,,,,,,,,,,,,,3,2021-08-26_09h55.12.332,Session1,2020.2.10,Win32,60,,,1,1,1.156,0,73,73,73,1,TestWords/RAY_PA_TI.wav,1,OLD,OLD,A,,,,,,,,,,,,,,,,,,,,,,,,,,,,,,,,,,,,,,,,,,,,,,,,,,,,,,,,,,,
,,,,,,,,,,,,,,,,3,2021-08-26_09h55.12.332,Session1,2020.2.10,Win32,60,,,1,1,1.14,0,74,74,74,1,TestWords/GA_MU_ZI.wav,1,OLD,OLD,A,,,,,,,,,,,,,,,,,,,,,,,,,,,,,,,,,,,,,,,,,,,,,,,,,,,,,,,,,,,
,,,,,,,,,,,,,,,,3,2021-08-26_09h55.12.332,Session1,2020.2.10,Win32,60,,,1,0,2.009,0,75,75,75,1,TestWords/MO_DAY_PU.wav,2,NEW,SIMILAR,A,,,,,,,,,,,,,,,,,,,,,,,,,,,,,,,,,,,,,,,,,,,,,,,,,,,,,,,,,,,
,,,,,,,,,,,,,,,,3,2021-08-26_09h55.12.332,Session1,2020.2.10,Win32,60,,,1,1,1.204,0,76,76,76,1,TestWords/DAI_RU_CHI.wav,1,OLD,OLD,A,,,,,,,,,,,,,,,,,,,,,,,,,,,,,,,,,,,,,,,,,,,,,,,,,,,,,,,,,,,
,,,,,,,,,,,,,,,,3,2021-08-26_09h55.12.332,Session1,2020.2.10,Win32,60,,,2,1,3.155,0,77,77,77,1,TestWords/ZO_FU_RAI.wav,2,NEW,NEW,A,,,,,,,,,,,,,,,,,,,,,,,,,,,,,,,,,,,,,,,,,,,,,,,,,,,,,,,,,,,
,,,,,,,,,,,,,,,,3,2021-08-26_09h55.12.332,Session1,2020.2.10,Win32,60,,,2,1,2.958,0,78,78,78,1,TestWords/NO_WA_BAY.wav,2,NEW,NEW,A,,,,,,,,,,,,,,,,,,,,,,,,,,,,,,,,,,,,,,,,,,,,,,,,,,,,,,,,,,,
,,,,,,,,,,,,,,,,3,2021-08-26_09h55.12.332,Session1,2020.2.10,Win32,60,,,1,1,4.843,0,79,79,79,1,TestWords/GA_MU_ZI.wav,1,OLD,OLD,A,,,,,,,,,,,,,,,,,,,,,,,,,,,,,,,,,,,,,,,,,,,,,,,,,,,,,,,,,,,
,,,,,,,,,,,,,,,,3,2021-08-26_09h55.12.332,Session1,2020.2.10,Win32,60,,,1,1,1.538,0,80,80,80,1,TestWords/DAI_RU_CHI.wav,1,OLD,OLD,A,,,,,,,,,,,,,,,,,,,,,,,,,,,,,,,,,,,,,,,,,,,,,,,,,,,,,,,,,,,
,,,,,,,,,,,,,,,,3,2021-08-26_09h55.12.332,Session1,2020.2.10,Win32,60,,,1,0,5.199,0,81,81,81,1,TestWords/PU_DAY_MO.wav,2,NEW,SIMILAR,A,,,,,,,,,,,,,,,,,,,,,,,,,,,,,,,,,,,,,,,,,,,,,,,,,,,,,,,,,,,
,,,,,,,,,,,,,,,,3,2021-08-26_09h55.12.332,Session1,2020.2.10,Win32,60,,,2,1,5.21,0,82,82,82,1,TestWords/RAI_ZO_FU.wav,2,NEW,SIMILAR,A,,,,,,,,,,,,,,,,,,,,,,,,,,,,,,,,,,,,,,,,,,,,,,,,,,,,,,,,,,,
,,,,,,,,,,,,,,,,3,2021-08-26_09h55.12.332,Session1,2020.2.10,Win32,60,,,1,1,2.209,0,83,83,83,1,TestWords/GA_MU_ZI.wav,1,OLD,OLD,A,,,,,,,,,,,,,,,,,,,,,,,,,,,,,,,,,,,,,,,,,,,,,,,,,,,,,,,,,,,
,,,,,,,,,,,,,,,,3,2021-08-26_09h55.12.332,Session1,2020.2.10,Win32,60,,,2,1,4.685,0,84,84,84,1,TestWords/PAI_LU_WA.wav,2,NEW,NEW,A,,,,,,,,,,,,,,,,,,,,,,,,,,,,,,,,,,,,,,,,,,,,,,,,,,,,,,,,,,,
,,,,,,,,,,,,,,,,3,2021-08-26_09h55.12.332,Session1,2020.2.10,Win32,60,,,1,0,2.026,0,85,85,85,1,TestWords/PU_MO_DAY.wav,2,NEW,SIMILAR,A,,,,,,,,,,,,,,,,,,,,,,,,,,,,,,,,,,,,,,,,,,,,,,,,,,,,,,,,,,,
,,,,,,,,,,,,,,,,3,2021-08-26_09h55.12.332,Session1,2020.2.10,Win32,60,,,1,1,1.653,0,86,86,86,1,TestWords/DAI_RU_CHI.wav,1,OLD,OLD,A,,,,,,,,,,,,,,,,,,,,,,,,,,,,,,,,,,,,,,,,,,,,,,,,,,,,,,,,,,,
,,,,,,,,,,,,,,,,3,2021-08-26_09h55.12.332,Session1,2020.2.10,Win32,60,,,1,0,3.667,0,87,87,87,1,TestWords/ZO_RAI_FU.wav,2,NEW,SIMILAR,A,,,,,,,,,,,,,,,,,,,,,,,,,,,,,,,,,,,,,,,,,,,,,,,,,,,,,,,,,,,
,,,,,,,,,,,,,,,,3,2021-08-26_09h55.12.332,Session1,2020.2.10,Win32,60,,,2,1,2.769,0,88,88,88,1,TestWords/FI_GU_CHA.wav,2,NEW,NEW,A,,,,,,,,,,,,,,,,,,,,,,,,,,,,,,,,,,,,,,,,,,,,,,,,,,,,,,,,,,,
,,,,,,,,,,,,,,,,3,2021-08-26_09h55.12.332,Session1,2020.2.10,Win32,60,,,1,1,2.342,0,89,89,89,1,TestWords/GA_MU_ZI.wav,1,OLD,OLD,A,,,,,,,,,,,,,,,,,,,,,,,,,,,,,,,,,,,,,,,,,,,,,,,,,,,,,,,,,,,
,,,,,,,,,,,,,,,,3,2021-08-26_09h55.12.332,Session1,2020.2.10,Win32,60,,,1,1,1.175,0,90,90,90,1,TestWords/DAI_RU_CHI.wav,1,OLD,OLD,A,,,,,,,,,,,,,,,,,,,,,,,,,,,,,,,,,,,,,,,,,,,,,,,,,,,,,,,,,,,
,,,,,,,,,,,,,,,,3,2021-08-26_09h55.12.332,Session1,2020.2.10,Win32,60,,,2,1,3.676,0,91,91,91,1,TestWords/FU_RAI_ZO.wav,2,NEW,SIMILAR,A,,,,,,,,,,,,,,,,,,,,,,,,,,,,,,,,,,,,,,,,,,,,,,,,,,,,,,,,,,,
,,,,,,,,,,,,,,,,3,2021-08-26_09h55.12.332,Session1,2020.2.10,Win32,60,,,1,0,7.439,0,92,92,92,1,TestWords/GU_CHAI_PI.wav,2,NEW,NEW,A,,,,,,,,,,,,,,,,,,,,,,,,,,,,,,,,,,,,,,,,,,,,,,,,,,,,,,,,,,,
,,,,,,,,,,,,,,,,3,2021-08-26_09h55.12.332,Session1,2020.2.10,Win32,60,,,1,1,1.285,0,93,93,93,1,TestWords/GA_MU_ZI.wav,1,OLD,OLD,A,,,,,,,,,,,,,,,,,,,,,,,,,,,,,,,,,,,,,,,,,,,,,,,,,,,,,,,,,,,
,,,,,,,,,,,,,,,,3,2021-08-26_09h55.12.332,Session1,2020.2.10,Win32,60,,,1,1,1.157,0,94,94,94,1,TestWords/DAI_RU_CHI.wav,1,OLD,OLD,A,,,,,,,,,,,,,,,,,,,,,,,,,,,,,,,,,,,,,,,,,,,,,,,,,,,,,,,,,,,
,,,,,,,,,,,,,,,,3,2021-08-26_09h55.12.332,Session1,2020.2.10,Win32,60,,,1,0,4.169,0,95,95,95,1,TestWords/FU_ZO_RAI.wav,2,NEW,SIMILAR,A,,,,,,,,,,,,,,,,,,,,,,,,,,,,,,,,,,,,,,,,,,,,,,,,,,,,,,,,,,,
,,,,,,,,,,,,,,,,3,2021-08-26_09h55.12.332,Session1,2020.2.10,Win32,60,,,2,1,8.284,0,96,96,96,1,TestWords/VAI_HO_LA.wav,2,NEW,NEW,A,,,,,,,,,,,,,,,,,,,,,,,,,,,,,,,,,,,,,,,,,,,,,,,,,,,,,,,,,,,
,,,,,,,,,,,,,,,,3,2021-08-26_09h55.12.332,Session1,2020.2.10,Win32,60,,,1,1,1.806,0,97,97,97,1,TestWords/DAI_RU_CHI.wav,1,OLD,OLD,A,,,,,,,,,,,,,,,,,,,,,,,,,,,,,,,,,,,,,,,,,,,,,,,,,,,,,,,,,,,
,,,,,,,,,,,,,,,,3,2021-08-26_09h55.12.332,Session1,2020.2.10,Win32,60,,,2,1,3.022,0,98,98,98,1,TestWords/LA_ZAY_CHAI.wav,2,NEW,NEW,A,,,,,,,,,,,,,,,,,,,,,,,,,,,,,,,,,,,,,,,,,,,,,,,,,,,,,,,,,,,
,,,,,,,,,,,,,,,,3,2021-08-26_09h55.12.332,Session1,2020.2.10,Win32,60,,,1,0,3.322,0,99,99,99,1,TestWords/RAI_FU_ZO.wav,2,NEW,SIMILAR,A,,,,,,,,,,,,,,,,,,,,,,,,,,,,,,,,,,,,,,,,,,,,,,,,,,,,,,,,,,,
,,,,,,,,,,,,,,,,3,2021-08-26_09h55.12.332,Session1,2020.2.10,Win32,60,,,,,,,,,,,,,,,,0,0,0,0,1,,,,,,,,,,,,,,,,,,,,,,,,,,,,,,,,,,,,,,,,,,,,,,,,,,,,,,
,,space,4.036,,,,,,,,,,,,,3,2021-08-26_09h55.12.332,Session1,2020.2.10,Win32,60,,,,,,,,,,,,,,,,,,,,,space,15.978,space,13.029,space,3.775,space,0.829,0,0,0,0,1,Practice/Seagull_A.wav,2,3,NEW,Practice,,,,,,,,,,,,,,,,,,,,,,,,,,,,,,,,,,,,
,,,,,,,,,,,,,,,,3,2021-08-26_09h55.12.332,Session1,2020.2.10,Win32,60,,,,,,,,,,,,,,,,,,,,,,,,,space,3.15,space,6.201,0,1,1,1,1,Practice/Skid_B.wav,2,3,NEW,Practice,,,,,,,,,,,,,,,,,,,,,,,,,,,,,,,,,,,,
,,,,,,,,,,,,,,,,3,2021-08-26_09h55.12.332,Session1,2020.2.10,Win32,60,,,,,,,,,,,,,,,,,,,,,,,,,space,3.883,space,0.955,0,2,2,2,1,Practice/Seagull_A.wav,1,1,OLD,Practice,,,,,,,,,,,,,,,,,,,,,,,,,,,,,,,,,,,,
,,,,,,,,,,,,,,,,3,2021-08-26_09h55.12.332,Session1,2020.2.10,Win32,60,,,,,,,,,,,,,,,,,,,,,,,,,space,3.02,space,0.734,0,3,3,3,1,Practice/Gargle_A.wav,2,3,NEW,Practice,,,,,,,,,,,,,,,,,,,,,,,,,,,,,,,,,,,,
,,,,,,,,,,,,,,,,3,2021-08-26_09h55.12.332,Session1,2020.2.10,Win32,60,,,,,,,,,,,,,,,,,,,,,,,,,space,7.265,space,8.647,0,4,4,4,1,Practice/Gargle_B.wav,2,2,SIMILAR,Practice,,,,,,,,,,,,,,,,,,,,,,,,,,,,,,,,,,,,
,,,,,,,,,,,,,,,,3,2021-08-26_09h55.12.332,Session1,2020.2.10,Win32,60,,,,,,,,,,,,,,,,,,,,,,,,,,,,,,,,,,SoundMST/Buzz.wav,2,3,NEW,A,space,8.526,2,1,0.318,0,0,0,0,1,,,,,,,,,,,,,,,,,,,,,,,,,,
,,,,,,,,,,,,,,,,3,2021-08-26_09h55.12.332,Session1,2020.2.10,Win32,60,,,,,,,,,,,,,,,,,,,,,,,,,,,,,,,,,,SoundMST/Writing_A.wav,2,3,NEW,A,,,2,1,1.18,0,1,1,1,1,,,,,,,,,,,,,,,,,,,,,,,,,,
,,,,,,,,,,,,,,,,3,2021-08-26_09h55.12.332,Session1,2020.2.10,Win32,60,,,,,,,,,,,,,,,,,,,,,,,,,,,,,,,,,,SoundMST/CarStart_E.wav,2,3,NEW,A,,,2,1,0.755,0,2,2,2,1,,,,,,,,,,,,,,,,,,,,,,,,,,
,,,,,,,,,,,,,,,,3,2021-08-26_09h55.12.332,Session1,2020.2.10,Win32,60,,,,,,,,,,,,,,,,,,,,,,,,,,,,,,,,,,SoundMST/Elephant_C.wav,2,3,NEW,A,,,2,1,0.487,0,3,3,3,1,,,,,,,,,,,,,,,,,,,,,,,,,,
,,,,,,,,,,,,,,,,3,2021-08-26_09h55.12.332,Session1,2020.2.10,Win32,60,,,,,,,,,,,,,,,,,,,,,,,,,,,,,,,,,,SoundMST/Puff_A.wav,2,3,NEW,A,,,2,1,0.728,0,4,4,4,1,,,,,,,,,,,,,,,,,,,,,,,,,,
,,,,,,,,,,,,,,,,3,2021-08-26_09h55.12.332,Session1,2020.2.10,Win32,60,,,,,,,,,,,,,,,,,,,,,,,,,,,,,,,,,,SoundMST/Trumpet_B.wav,2,3,NEW,A,,,2,1,0.69,0,5,5,5,1,,,,,,,,,,,,,,,,,,,,,,,,,,
,,,,,,,,,,,,,,,,3,2021-08-26_09h55.12.332,Session1,2020.2.10,Win32,60,,,,,,,,,,,,,,,,,,,,,,,,,,,,,,,,,,SoundMST/Heartbeat.wav,2,3,NEW,A,,,2,1,0.722,0,6,6,6,1,,,,,,,,,,,,,,,,,,,,,,,,,,
,,,,,,,,,,,,,,,,3,2021-08-26_09h55.12.332,Session1,2020.2.10,Win32,60,,,,,,,,,,,,,,,,,,,,,,,,,,,,,,,,,,SoundMST/Piano_D.wav,2,3,NEW,A,,,2,1,0.29,0,7,7,7,1,,,,,,,,,,,,,,,,,,,,,,,,,,
,,,,,,,,,,,,,,,,3,2021-08-26_09h55.12.332,Session1,2020.2.10,Win32,60,,,,,,,,,,,,,,,,,,,,,,,,,,,,,,,,,,SoundMST/Cello.wav,2,3,NEW,A,,,2,1,0.556,0,8,8,8,1,,,,,,,,,,,,,,,,,,,,,,,,,,
,,,,,,,,,,,,,,,,3,2021-08-26_09h55.12.332,Session1,2020.2.10,Win32,60,,,,,,,,,,,,,,,,,,,,,,,,,,,,,,,,,,SoundMST/Writing_C.wav,2,2,SIMILAR,A,,,1,0,1.894,0,9,9,9,1,,,,,,,,,,,,,,,,,,,,,,,,,,
,,,,,,,,,,,,,,,,3,2021-08-26_09h55.12.332,Session1,2020.2.10,Win32,60,,,,,,,,,,,,,,,,,,,,,,,,,,,,,,,,,,SoundMST/Buzz.wav,1,1,OLD,A,,,1,1,1.821,0,10,10,10,1,,,,,,,,,,,,,,,,,,,,,,,,,,
,,,,,,,,,,,,,,,,3,2021-08-26_09h55.12.332,Session1,2020.2.10,Win32,60,,,,,,,,,,,,,,,,,,,,,,,,,,,,,,,,,,SoundMST/Steam.wav,2,3,NEW,A,,,2,1,0.69,0,11,11,11,1,,,,,,,,,,,,,,,,,,,,,,,,,,
,,,,,,,,,,,,,,,,3,2021-08-26_09h55.12.332,Session1,2020.2.10,Win32,60,,,,,,,,,,,,,,,,,,,,,,,,,,,,,,,,,,SoundMST/Cuckoo_A.wav,2,3,NEW,A,,,2,1,0.422,0,12,12,12,1,,,,,,,,,,,,,,,,,,,,,,,,,,
,,,,,,,,,,,,,,,,3,2021-08-26_09h55.12.332,Session1,2020.2.10,Win32,60,,,,,,,,,,,,,,,,,,,,,,,,,,,,,,,,,,SoundMST/Chicken_A.wav,2,3,NEW,A,,,2,1,0.795,0,13,13,13,1,,,,,,,,,,,,,,,,,,,,,,,,,,
,,,,,,,,,,,,,,,,3,2021-08-26_09h55.12.332,Session1,2020.2.10,Win32,60,,,,,,,,,,,,,,,,,,,,,,,,,,,,,,,,,,SoundMST/Goat_C.wav,2,3,NEW,A,,,2,1,0.688,0,14,14,14,1,,,,,,,,,,,,,,,,,,,,,,,,,,
,,,,,,,,,,,,,,,,3,2021-08-26_09h55.12.332,Session1,2020.2.10,Win32,60,,,,,,,,,,,,,,,,,,,,,,,,,,,,,,,,,,SoundMST/CarStart_D.wav,2,2,SIMILAR,A,,,2,1,0.787,0,15,15,15,1,,,,,,,,,,,,,,,,,,,,,,,,,,
,,,,,,,,,,,,,,,,3,2021-08-26_09h55.12.332,Session1,2020.2.10,Win32,60,,,,,,,,,,,,,,,,,,,,,,,,,,,,,,,,,,SoundMST/Duck_B.wav,2,3,NEW,A,,,2,1,1.255,0,16,16,16,1,,,,,,,,,,,,,,,,,,,,,,,,,,
,,,,,,,,,,,,,,,,3,2021-08-26_09h55.12.332,Session1,2020.2.10,Win32,60,,,,,,,,,,,,,,,,,,,,,,,,,,,,,,,,,,SoundMST/Trumpet_C.wav,2,2,SIMILAR,A,,,2,1,3.857,0,17,17,17,1,,,,,,,,,,,,,,,,,,,,,,,,,,
,,,,,,,,,,,,,,,,3,2021-08-26_09h55.12.332,Session1,2020.2.10,Win32,60,,,,,,,,,,,,,,,,,,,,,,,,,,,,,,,,,,SoundMST/Cello.wav,1,1,OLD,A,,,1,1,1.605,0,18,18,18,1,,,,,,,,,,,,,,,,,,,,,,,,,,
,,,,,,,,,,,,,,,,3,2021-08-26_09h55.12.332,Session1,2020.2.10,Win32,60,,,,,,,,,,,,,,,,,,,,,,,,,,,,,,,,,,SoundMST/Camera.wav,2,3,NEW,A,,,2,1,2.289,0,19,19,19,1,,,,,,,,,,,,,,,,,,,,,,,,,,
,,,,,,,,,,,,,,,,3,2021-08-26_09h55.12.332,Session1,2020.2.10,Win32,60,,,,,,,,,,,,,,,,,,,,,,,,,,,,,,,,,,SoundMST/Puff_A.wav,1,1,OLD,A,,,2,0,1.326,0,20,20,20,1,,,,,,,,,,,,,,,,,,,,,,,,,,
,,,,,,,,,,,,,,,,3,2021-08-26_09h55.12.332,Session1,2020.2.10,Win32,60,,,,,,,,,,,,,,,,,,,,,,,,,,,,,,,,,,SoundMST/Heartbeat.wav,1,1,OLD,A,,,1,1,1.01,0,21,21,21,1,,,,,,,,,,,,,,,,,,,,,,,,,,
,,,,,,,,,,,,,,,,3,2021-08-26_09h55.12.332,Session1,2020.2.10,Win32,60,,,,,,,,,,,,,,,,,,,,,,,,,,,,,,,,,,SoundMST/Phone_F.wav,2,3,NEW,A,,,2,1,1.122,0,22,22,22,1,,,,,,,,,,,,,,,,,,,,,,,,,,
,,,,,,,,,,,,,,,,3,2021-08-26_09h55.12.332,Session1,2020.2.10,Win32,60,,,,,,,,,,,,,,,,,,,,,,,,,,,,,,,,,,SoundMST/Piano_C.wav,2,2,SIMILAR,A,,,2,1,1.491,0,23,23,23,1,,,,,,,,,,,,,,,,,,,,,,,,,,
,,,,,,,,,,,,,,,,3,2021-08-26_09h55.12.332,Session1,2020.2.10,Win32,60,,,,,,,,,,,,,,,,,,,,,,,,,,,,,,,,,,SoundMST/Snore_C.wav,2,3,NEW,A,,,2,1,1.095,0,24,24,24,1,,,,,,,,,,,,,,,,,,,,,,,,,,
,,,,,,,,,,,,,,,,3,2021-08-26_09h55.12.332,Session1,2020.2.10,Win32,60,,,,,,,,,,,,,,,,,,,,,,,,,,,,,,,,,,SoundMST/Chicken_A.wav,1,1,OLD,A,,,1,1,1.229,0,25,25,25,1,,,,,,,,,,,,,,,,,,,,,,,,,,
,,,,,,,,,,,,,,,,3,2021-08-26_09h55.12.332,Session1,2020.2.10,Win32,60,,,,,,,,,,,,,,,,,,,,,,,,,,,,,,,,,,SoundMST/Mosquito_B.wav,2,3,NEW,A,,,2,1,0.893,0,26,26,26,1,,,,,,,,,,,,,,,,,,,,,,,,,,
,,,,,,,,,,,,,,,,3,2021-08-26_09h55.12.332,Session1,2020.2.10,Win32,60,,,,,,,,,,,,,,,,,,,,,,,,,,,,,,,,,,SoundMST/Cough_I.wav,2,3,NEW,A,,,2,1,1.386,0,27,27,27,1,,,,,,,,,,,,,,,,,,,,,,,,,,
,,,,,,,,,,,,,,,,3,2021-08-26_09h55.12.332,Session1,2020.2.10,Win32,60,,,,,,,,,,,,,,,,,,,,,,,,,,,,,,,,,,SoundMST/Elephant_A.wav,2,2,SIMILAR,A,,,1,0,1.11,0,28,28,28,1,,,,,,,,,,,,,,,,,,,,,,,,,,
,,,,,,,,,,,,,,,,3,2021-08-26_09h55.12.332,Session1,2020.2.10,Win32,60,,,,,,,,,,,,,,,,,,,,,,,,,,,,,,,,,,SoundMST/Cuckoo_A.wav,1,1,OLD,A,,,1,1,3.202,0,29,29,29,1,,,,,,,,,,,,,,,,,,,,,,,,,,
,,,,,,,,,,,,,,,,3,2021-08-26_09h55.12.332,Session1,2020.2.10,Win32,60,,,,,,,,,,,,,,,,,,,,,,,,,,,,,,,,,,SoundMST/Baby_C.wav,2,3,NEW,A,,,2,1,1.118,0,30,30,30,1,,,,,,,,,,,,,,,,,,,,,,,,,,
,,,,,,,,,,,,,,,,3,2021-08-26_09h55.12.332,Session1,2020.2.10,Win32,60,,,,,,,,,,,,,,,,,,,,,,,,,,,,,,,,,,SoundMST/Duck_A.wav,2,2,SIMILAR,A,,,1,0,3.638,0,31,31,31,1,,,,,,,,,,,,,,,,,,,,,,,,,,
,,,,,,,,,,,,,,,,3,2021-08-26_09h55.12.332,Session1,2020.2.10,Win32,60,,,,,,,,,,,,,,,,,,,,,,,,,,,,,,,,,,SoundMST/Chime_D.wav,2,3,NEW,A,,,2,1,0.793,0,32,32,32,1,,,,,,,,,,,,,,,,,,,,,,,,,,
,,,,,,,,,,,,,,,,3,2021-08-26_09h55.12.332,Session1,2020.2.10,Win32,60,,,,,,,,,,,,,,,,,,,,,,,,,,,,,,,,,,SoundMST/Faucet_A.wav,2,3,NEW,A,,,2,1,0.953,0,33,33,33,1,,,,,,,,,,,,,,,,,,,,,,,,,,
,,,,,,,,,,,,,,,,3,2021-08-26_09h55.12.332,Session1,2020.2.10,Win32,60,,,,,,,,,,,,,,,,,,,,,,,,,,,,,,,,,,SoundMST/Camera.wav,1,1,OLD,A,,,1,1,1.692,0,34,34,34,1,,,,,,,,,,,,,,,,,,,,,,,,,,
,,,,,,,,,,,,,,,,3,2021-08-26_09h55.12.332,Session1,2020.2.10,Win32,60,,,,,,,,,,,,,,,,,,,,,,,,,,,,,,,,,,SoundMST/Bird_C.wav,2,3,NEW,A,,,2,1,1.478,0,35,35,35,1,,,,,,,,,,,,,,,,,,,,,,,,,,
,,,,,,,,,,,,,,,,3,2021-08-26_09h55.12.332,Session1,2020.2.10,Win32,60,,,,,,,,,,,,,,,,,,,,,,,,,,,,,,,,,,SoundMST/Steam.wav,1,1,OLD,A,,,1,1,1.01,0,36,36,36,1,,,,,,,,,,,,,,,,,,,,,,,,,,
,,,,,,,,,,,,,,,,3,2021-08-26_09h55.12.332,Session1,2020.2.10,Win32,60,,,,,,,,,,,,,,,,,,,,,,,,,,,,,,,,,,SoundMST/Phone_E.wav,2,2,SIMILAR,A,,,1,0,2.022,0,37,37,37,1,,,,,,,,,,,,,,,,,,,,,,,,,,
,,,,,,,,,,,,,,,,3,2021-08-26_09h55.12.332,Session1,2020.2.10,Win32,60,,,,,,,,,,,,,,,,,,,,,,,,,,,,,,,,,,SoundMST/Snore_E.wav,2,2,SIMILAR,A,,,2,1,1.76,0,38,38,38,1,,,,,,,,,,,,,,,,,,,,,,,,,,
,,,,,,,,,,,,,,,,3,2021-08-26_09h55.12.332,Session1,2020.2.10,Win32,60,,,,,,,,,,,,,,,,,,,,,,,,,,,,,,,,,,SoundMST/Goat_C.wav,1,1,OLD,A,,,1,1,1.969,0,39,39,39,1,,,,,,,,,,,,,,,,,,,,,,,,,,
,,,,,,,,,,,,,,,,3,2021-08-26_09h55.12.332,Session1,2020.2.10,Win32,60,,,,,,,,,,,,,,,,,,,,,,,,,,,,,,,,,,SoundMST/Chime_A.wav,2,2,SIMILAR,A,,,1,0,5.977,0,40,40,40,1,,,,,,,,,,,,,,,,,,,,,,,,,,
,,,,,,,,,,,,,,,,3,2021-08-26_09h55.12.332,Session1,2020.2.10,Win32,60,,,,,,,,,,,,,,,,,,,,,,,,,,,,,,,,,,SoundMST/Faucet_C.wav,2,2,SIMILAR,A,,,2,1,1.452,0,41,41,41,1,,,,,,,,,,,,,,,,,,,,,,,,,,
,,,,,,,,,,,,,,,,3,2021-08-26_09h55.12.332,Session1,2020.2.10,Win32,60,,,,,,,,,,,,,,,,,,,,,,,,,,,,,,,,,,SoundMST/Bullfrog.wav,2,3,NEW,A,,,2,1,0.623,0,42,42,42,1,,,,,,,,,,,,,,,,,,,,,,,,,,
,,,,,,,,,,,,,,,,3,2021-08-26_09h55.12.332,Session1,2020.2.10,Win32,60,,,,,,,,,,,,,,,,,,,,,,,,,,,,,,,,,,SoundMST/Mosquito_B.wav,1,1,OLD,A,,,1,1,0.559,0,43,43,43,1,,,,,,,,,,,,,,,,,,,,,,,,,,
,,,,,,,,,,,,,,,,3,2021-08-26_09h55.12.332,Session1,2020.2.10,Win32,60,,,,,,,,,,,,,,,,,,,,,,,,,,,,,,,,,,SoundMST/Guitar_B.wav,2,3,NEW,A,,,2,1,1.025,0,44,44,44,1,,,,,,,,,,,,,,,,,,,,,,,,,,
,,,,,,,,,,,,,,,,3,2021-08-26_09h55.12.332,Session1,2020.2.10,Win32,60,,,,,,,,,,,,,,,,,,,,,,,,,,,,,,,,,,SoundMST/Baby_B.wav,2,2,SIMILAR,A,,,1,0,5.883,0,45,45,45,1,,,,,,,,,,,,,,,,,,,,,,,,,,
,,,,,,,,,,,,,,,,3,2021-08-26_09h55.12.332,Session1,2020.2.10,Win32,60,,,,,,,,,,,,,,,,,,,,,,,,,,,,,,,,,,SoundMST/Sleighbells_B.wav,2,3,NEW,A,,,2,1,1.356,0,46,46,46,1,,,,,,,,,,,,,,,,,,,,,,,,,,
,,,,,,,,,,,,,,,,3,2021-08-26_09h55.12.332,Session1,2020.2.10,Win32,60,,,,,,,,,,,,,,,,,,,,,,,,,,,,,,,,,,SoundMST/Cat_A.wav,2,3,NEW,A,,,2,1,1.369,0,47,47,47,1,,,,,,,,,,,,,,,,,,,,,,,,,,
,,,,,,,,,,,,,,,,3,2021-08-26_09h55.12.332,Session1,2020.2.10,Win32,60,,,,,,,,,,,,,,,,,,,,,,,,,,,,,,,,,,SoundMST/Airhorn.wav,2,3,NEW,A,,,2,1,1.708,0,48,48,48,1,,,,,,,,,,,,,,,,,,,,,,,,,,
,,,,,,,,,,,,,,,,3,2021-08-26_09h55.12.332,Session1,2020.2.10,Win32,60,,,,,,,,,,,,,,,,,,,,,,,,,,,,,,,,,,SoundMST/Bird_A.wav,2,2,SIMILAR,A,,,1,0,3.952,0,49,49,49,1,,,,,,,,,,,,,,,,,,,,,,,,,,
,,,,,,,,,,,,,,,,3,2021-08-26_09h55.12.332,Session1,2020.2.10,Win32,60,,,,,,,,,,,,,,,,,,,,,,,,,,,,,,,,,,SoundMST/Laugh_A.wav,2,3,NEW,A,,,2,1,1.024,0,50,50,50,1,,,,,,,,,,,,,,,,,,,,,,,,,,
,,,,,,,,,,,,,,,,3,2021-08-26_09h55.12.332,Session1,2020.2.10,Win32,60,,,,,,,,,,,,,,,,,,,,,,,,,,,,,,,,,,SoundMST/Dog_H.wav,2,3,NEW,A,,,2,1,0.387,0,51,51,51,1,,,,,,,,,,,,,,,,,,,,,,,,,,
,,,,,,,,,,,,,,,,3,2021-08-26_09h55.12.332,Session1,2020.2.10,Win32,60,,,,,,,,,,,,,,,,,,,,,,,,,,,,,,,,,,SoundMST/Cough_J.wav,2,2,SIMILAR,A,,,1,0,1.944,0,52,52,52,1,,,,,,,,,,,,,,,,,,,,,,,,,,
,,,,,,,,,,,,,,,,3,2021-08-26_09h55.12.332,Session1,2020.2.10,Win32,60,,,,,,,,,,,,,,,,,,,,,,,,,,,,,,,,,,SoundMST/Donkey.wav,2,3,NEW,A,,,2,1,1.793,0,53,53,53,1,,,,,,,,,,,,,,,,,,,,,,,,,,
,,,,,,,,,,,,,,,,3,2021-08-26_09h55.12.332,Session1,2020.2.10,Win32,60,,,,,,,,,,,,,,,,,,,,,,,,,,,,,,,,,,SoundMST/Slurp.wav,2,3,NEW,A,,,1,0,1.758,0,54,54,54,1,,,,,,,,,,,,,,,,,,,,,,,,,,
,,,,,,,,,,,,,,,,3,2021-08-26_09h55.12.332,Session1,2020.2.10,Win32,60,,,,,,,,,,,,,,,,,,,,,,,,,,,,,,,,,,SoundMST/Airhorn.wav,1,1,OLD,A,,,1,1,0.956,0,55,55,55,1,,,,,,,,,,,,,,,,,,,,,,,,,,
,,,,,,,,,,,,,,,,3,2021-08-26_09h55.12.332,Session1,2020.2.10,Win32,60,,,,,,,,,,,,,,,,,,,,,,,,,,,,,,,,,,SoundMST/Cat_A.wav,1,1,OLD,A,,,1,1,4.003,0,56,56,56,1,,,,,,,,,,,,,,,,,,,,,,,,,,
,,,,,,,,,,,,,,,,3,2021-08-26_09h55.12.332,Session1,2020.2.10,Win32,60,,,,,,,,,,,,,,,,,,,,,,,,,,,,,,,,,,SoundMST/Hammer_A.wav,2,3,NEW,A,,,2,1,1.554,0,57,57,57,1,,,,,,,,,,,,,,,,,,,,,,,,,,
,,,,,,,,,,,,,,,,3,2021-08-26_09h55.12.332,Session1,2020.2.10,Win32,60,,,,,,,,,,,,,,,,,,,,,,,,,,,,,,,,,,SoundMST/Guitar_B.wav,1,1,OLD,A,,,1,1,0.824,0,58,58,58,1,,,,,,,,,,,,,,,,,,,,,,,,,,
,,,,,,,,,,,,,,,,3,2021-08-26_09h55.12.332,Session1,2020.2.10,Win32,60,,,,,,,,,,,,,,,,,,,,,,,,,,,,,,,,,,SoundMST/Howl.wav,2,3,NEW,A,,,2,1,1.223,0,59,59,59,1,,,,,,,,,,,,,,,,,,,,,,,,,,
,,,,,,,,,,,,,,,,3,2021-08-26_09h55.12.332,Session1,2020.2.10,Win32,60,,,,,,,,,,,,,,,,,,,,,,,,,,,,,,,,,,SoundMST/Bullfrog.wav,1,1,OLD,A,,,1,1,1.821,0,60,60,60,1,,,,,,,,,,,,,,,,,,,,,,,,,,
,,,,,,,,,,,,,,,,3,2021-08-26_09h55.12.332,Session1,2020.2.10,Win32,60,,,,,,,,,,,,,,,,,,,,,,,,,,,,,,,,,,SoundMST/Printer.wav,2,3,NEW,A,,,2,1,1.754,0,61,61,61,1,,,,,,,,,,,,,,,,,,,,,,,,,,
,,,,,,,,,,,,,,,,3,2021-08-26_09h55.12.332,Session1,2020.2.10,Win32,60,,,,,,,,,,,,,,,,,,,,,,,,,,,,,,,,,,SoundMST/Horse.wav,2,3,NEW,A,,,2,1,0.957,0,62,62,62,1,,,,,,,,,,,,,,,,,,,,,,,,,,
,,,,,,,,,,,,,,,,3,2021-08-26_09h55.12.332,Session1,2020.2.10,Win32,60,,,,,,,,,,,,,,,,,,,,,,,,,,,,,,,,,,SoundMST/Airplane_B.wav,2,3,NEW,A,,,2,1,0.755,0,63,63,63,1,,,,,,,,,,,,,,,,,,,,,,,,,,
,,,,,,,,,,,,,,,,3,2021-08-26_09h55.12.332,Session1,2020.2.10,Win32,60,,,,,,,,,,,,,,,,,,,,,,,,,,,,,,,,,,SoundMST/Pour_F.wav,2,3,NEW,A,,,2,1,2.585,0,64,64,64,1,,,,,,,,,,,,,,,,,,,,,,,,,,
,,,,,,,,,,,,,,,,3,2021-08-26_09h55.12.332,Session1,2020.2.10,Win32,60,,,,,,,,,,,,,,,,,,,,,,,,,,,,,,,,,,SoundMST/Dog_I.wav,2,2,SIMILAR,A,,,2,1,2.927,0,65,65,65,1,,,,,,,,,,,,,,,,,,,,,,,,,,
,,,,,,,,,,,,,,,,3,2021-08-26_09h55.12.332,Session1,2020.2.10,Win32,60,,,,,,,,,,,,,,,,,,,,,,,,,,,,,,,,,,SoundMST/Donkey.wav,1,1,OLD,A,,,1,1,2.153,0,66,66,66,1,,,,,,,,,,,,,,,,,,,,,,,,,,
,,,,,,,,,,,,,,,,3,2021-08-26_09h55.12.332,Session1,2020.2.10,Win32,60,,,,,,,,,,,,,,,,,,,,,,,,,,,,,,,,,,SoundMST/Slurp.wav,1,1,OLD,A,,,1,1,1.722,0,67,67,67,1,,,,,,,,,,,,,,,,,,,,,,,,,,
,,,,,,,,,,,,,,,,3,2021-08-26_09h55.12.332,Session1,2020.2.10,Win32,60,,,,,,,,,,,,,,,,,,,,,,,,,,,,,,,,,,SoundMST/HairDryer_A.wav,2,3,NEW,A,,,2,1,0.627,0,68,68,68,1,,,,,,,,,,,,,,,,,,,,,,,,,,
,,,,,,,,,,,,,,,,3,2021-08-26_09h55.12.332,Session1,2020.2.10,Win32,60,,,,,,,,,,,,,,,,,,,,,,,,,,,,,,,,,,SoundMST/Thunder_A.wav,2,3,NEW,A,,,2,1,0.823,0,69,69,69,1,,,,,,,,,,,,,,,,,,,,,,,,,,
,,,,,,,,,,,,,,,,3,2021-08-26_09h55.12.332,Session1,2020.2.10,Win32,60,,,,,,,,,,,,,,,,,,,,,,,,,,,,,,,,,,SoundMST/Sleighbells_B.wav,1,1,OLD,A,,,1,1,0.958,0,70,70,70,1,,,,,,,,,,,,,,,,,,,,,,,,,,
,,,,,,,,,,,,,,,,3,2021-08-26_09h55.12.332,Session1,2020.2.10,Win32,60,,,,,,,,,,,,,,,,,,,,,,,,,,,,,,,,,,SoundMST/Laugh_D.wav,2,2,SIMILAR,A,,,1,0,3.539,0,71,71,71,1,,,,,,,,,,,,,,,,,,,,,,,,,,
,,,,,,,,,,,,,,,,3,2021-08-26_09h55.12.332,Session1,2020.2.10,Win32,60,,,,,,,,,,,,,,,,,,,,,,,,,,,,,,,,,,SoundMST/Toilet_B.wav,2,3,NEW,A,,,1,0,2.458,0,72,72,72,1,,,,,,,,,,,,,,,,,,,,,,,,,,
,,,,,,,,,,,,,,,,3,2021-08-26_09h55.12.332,Session1,2020.2.10,Win32,60,,,,,,,,,,,,,,,,,,,,,,,,,,,,,,,,,,SoundMST/Howl.wav,1,1,OLD,A,,,1,1,1.994,0,73,73,73,1,,,,,,,,,,,,,,,,,,,,,,,,,,
,,,,,,,,,,,,,,,,3,2021-08-26_09h55.12.332,Session1,2020.2.10,Win32,60,,,,,,,,,,,,,,,,,,,,,,,,,,,,,,,,,,SoundMST/Footsteps_C.wav,2,3,NEW,A,,,2,1,1.694,0,74,74,74,1,,,,,,,,,,,,,,,,,,,,,,,,,,
,,,,,,,,,,,,,,,,3,2021-08-26_09h55.12.332,Session1,2020.2.10,Win32,60,,,,,,,,,,,,,,,,,,,,,,,,,,,,,,,,,,SoundMST/Cup.wav,2,3,NEW,A,,,2,1,2.32,0,75,75,75,1,,,,,,,,,,,,,,,,,,,,,,,,,,
,,,,,,,,,,,,,,,,3,2021-08-26_09h55.12.332,Session1,2020.2.10,Win32,60,,,,,,,,,,,,,,,,,,,,,,,,,,,,,,,,,,SoundMST/Pour_C.wav,2,2,SIMILAR,A,,,1,0,1.089,0,76,76,76,1,,,,,,,,,,,,,,,,,,,,,,,,,,
,,,,,,,,,,,,,,,,3,2021-08-26_09h55.12.332,Session1,2020.2.10,Win32,60,,,,,,,,,,,,,,,,,,,,,,,,,,,,,,,,,,SoundMST/Sneeze_B.wav,2,3,NEW,A,,,2,1,2.391,0,77,77,77,1,,,,,,,,,,,,,,,,,,,,,,,,,,
,,,,,,,,,,,,,,,,3,2021-08-26_09h55.12.332,Session1,2020.2.10,Win32,60,,,,,,,,,,,,,,,,,,,,,,,,,,,,,,,,,,SoundMST/Airplane_B.wav,1,1,OLD,A,,,1,1,1.228,0,78,78,78,1,,,,,,,,,,,,,,,,,,,,,,,,,,
,,,,,,,,,,,,,,,,3,2021-08-26_09h55.12.332,Session1,2020.2.10,Win32,60,,,,,,,,,,,,,,,,,,,,,,,,,,,,,,,,,,SoundMST/HairDryer_A.wav,1,1,OLD,A,,,1,1,3.902,0,79,79,79,1,,,,,,,,,,,,,,,,,,,,,,,,,,
,,,,,,,,,,,,,,,,3,2021-08-26_09h55.12.332,Session1,2020.2.10,Win32,60,,,,,,,,,,,,,,,,,,,,,,,,,,,,,,,,,,SoundMST/Hammer_A.wav,1,1,OLD,A,,,1,1,1.326,0,80,80,80,1,,,,,,,,,,,,,,,,,,,,,,,,,,
,,,,,,,,,,,,,,,,3,2021-08-26_09h55.12.332,Session1,2020.2.10,Win32,60,,,,,,,,,,,,,,,,,,,,,,,,,,,,,,,,,,SoundMST/Printer.wav,1,1,OLD,A,,,1,1,1.027,0,81,81,81,1,,,,,,,,,,,,,,,,,,,,,,,,,,
,,,,,,,,,,,,,,,,3,2021-08-26_09h55.12.332,Session1,2020.2.10,Win32,60,,,,,,,,,,,,,,,,,,,,,,,,,,,,,,,,,,SoundMST/Thunder_A.wav,1,1,OLD,A,,,1,1,0.753,0,82,82,82,1,,,,,,,,,,,,,,,,,,,,,,,,,,
,,,,,,,,,,,,,,,,3,2021-08-26_09h55.12.332,Session1,2020.2.10,Win32,60,,,,,,,,,,,,,,,,,,,,,,,,,,,,,,,,,,SoundMST/Cow.wav,2,3,NEW,A,,,1,0,1.089,0,83,83,83,1,,,,,,,,,,,,,,,,,,,,,,,,,,
,,,,,,,,,,,,,,,,3,2021-08-26_09h55.12.332,Session1,2020.2.10,Win32,60,,,,,,,,,,,,,,,,,,,,,,,,,,,,,,,,,,SoundMST/Cup.wav,1,1,OLD,A,,,1,1,1.658,0,84,84,84,1,,,,,,,,,,,,,,,,,,,,,,,,,,
,,,,,,,,,,,,,,,,3,2021-08-26_09h55.12.332,Session1,2020.2.10,Win32,60,,,,,,,,,,,,,,,,,,,,,,,,,,,,,,,,,,SoundMST/Growl_H.wav,2,3,NEW,A,,,2,1,1.405,0,85,85,85,1,,,,,,,,,,,,,,,,,,,,,,,,,,
,,,,,,,,,,,,,,,,3,2021-08-26_09h55.12.332,Session1,2020.2.10,Win32,60,,,,,,,,,,,,,,,,,,,,,,,,,,,,,,,,,,SoundMST/Horse.wav,1,1,OLD,A,,,1,1,1.161,0,86,86,86,1,,,,,,,,,,,,,,,,,,,,,,,,,,
,,,,,,,,,,,,,,,,3,2021-08-26_09h55.12.332,Session1,2020.2.10,Win32,60,,,,,,,,,,,,,,,,,,,,,,,,,,,,,,,,,,SoundMST/Footsteps_F.wav,2,2,SIMILAR,A,,,1,0,1.461,0,87,87,87,1,,,,,,,,,,,,,,,,,,,,,,,,,,
,,,,,,,,,,,,,,,,3,2021-08-26_09h55.12.332,Session1,2020.2.10,Win32,60,,,,,,,,,,,,,,,,,,,,,,,,,,,,,,,,,,SoundMST/DialTone.wav,2,3,NEW,A,,,2,1,0.921,0,88,88,88,1,,,,,,,,,,,,,,,,,,,,,,,,,,
,,,,,,,,,,,,,,,,3,2021-08-26_09h55.12.332,Session1,2020.2.10,Win32,60,,,,,,,,,,,,,,,,,,,,,,,,,,,,,,,,,,SoundMST/Sneeze_B.wav,1,1,OLD,A,,,1,1,1.772,0,89,89,89,1,,,,,,,,,,,,,,,,,,,,,,,,,,
,,,,,,,,,,,,,,,,3,2021-08-26_09h55.12.332,Session1,2020.2.10,Win32,60,,,,,,,,,,,,,,,,,,,,,,,,,,,,,,,,,,SoundMST/Typing.wav,2,3,NEW,A,,,2,1,2.49,0,90,90,90,1,,,,,,,,,,,,,,,,,,,,,,,,,,
,,,,,,,,,,,,,,,,3,2021-08-26_09h55.12.332,Session1,2020.2.10,Win32,60,,,,,,,,,,,,,,,,,,,,,,,,,,,,,,,,,,SoundMST/Clap_A.wav,2,3,NEW,A,,,1,0,1.912,0,91,91,91,1,,,,,,,,,,,,,,,,,,,,,,,,,,
,,,,,,,,,,,,,,,,3,2021-08-26_09h55.12.332,Session1,2020.2.10,Win32,60,,,,,,,,,,,,,,,,,,,,,,,,,,,,,,,,,,SoundMST/Cow.wav,1,1,OLD,A,,,1,1,1.192,0,92,92,92,1,,,,,,,,,,,,,,,,,,,,,,,,,,
,,,,,,,,,,,,,,,,3,2021-08-26_09h55.12.332,Session1,2020.2.10,Win32,60,,,,,,,,,,,,,,,,,,,,,,,,,,,,,,,,,,SoundMST/Droplet_B.wav,2,3,NEW,A,,,2,1,2.354,0,93,93,93,1,,,,,,,,,,,,,,,,,,,,,,,,,,
,,,,,,,,,,,,,,,,3,2021-08-26_09h55.12.332,Session1,2020.2.10,Win32,60,,,,,,,,,,,,,,,,,,,,,,,,,,,,,,,,,,SoundMST/Toilet_B.wav,1,1,OLD,A,,,1,1,1.244,0,94,94,94,1,,,,,,,,,,,,,,,,,,,,,,,,,,
,,,,,,,,,,,,,,,,3,2021-08-26_09h55.12.332,Session1,2020.2.10,Win32,60,,,,,,,,,,,,,,,,,,,,,,,,,,,,,,,,,,SoundMST/Wind_B.wav,2,3,NEW,A,,,2,1,0.892,0,95,95,95,1,,,,,,,,,,,,,,,,,,,,,,,,,,
,,,,,,,,,,,,,,,,3,2021-08-26_09h55.12.332,Session1,2020.2.10,Win32,60,,,,,,,,,,,,,,,,,,,,,,,,,,,,,,,,,,SoundMST/Whistle_B.wav,2,3,NEW,A,,,2,1,1.093,0,96,96,96,1,,,,,,,,,,,,,,,,,,,,,,,,,,
,,,,,,,,,,,,,,,,3,2021-08-26_09h55.12.332,Session1,2020.2.10,Win32,60,,,,,,,,,,,,,,,,,,,,,,,,,,,,,,,,,,SoundMST/DialTone.wav,1,1,OLD,A,,,1,1,0.588,0,97,97,97,1,,,,,,,,,,,,,,,,,,,,,,,,,,
,,,,,,,,,,,,,,,,3,2021-08-26_09h55.12.332,Session1,2020.2.10,Win32,60,,,,,,,,,,,,,,,,,,,,,,,,,,,,,,,,,,SoundMST/Fireworks.wav,2,3,NEW,A,,,2,1,2.76,0,98,98,98,1,,,,,,,,,,,,,,,,,,,,,,,,,,
,,,,,,,,,,,,,,,,3,2021-08-26_09h55.12.332,Session1,2020.2.10,Win32,60,,,,,,,,,,,,,,,,,,,,,,,,,,,,,,,,,,SoundMST/Growl_H.wav,1,1,OLD,A,,,1,1,0.59,0,99,99,99,1,,,,,,,,,,,,,,,,,,,,,,,,,,
,,,,,,,,,,,,,,,,3,2021-08-26_09h55.12.332,Session1,2020.2.10,Win32,60,,,,,,,,,,,,,,,,,,,,,,,,,,,,,,,,,,SoundMST/Typing.wav,1,1,OLD,A,,,1,1,0.928,0,100,100,100,1,,,,,,,,,,,,,,,,,,,,,,,,,,
,,,,,,,,,,,,,,,,3,2021-08-26_09h55.12.332,Session1,2020.2.10,Win32,60,,,,,,,,,,,,,,,,,,,,,,,,,,,,,,,,,,SoundMST/Bagpipe.wav,2,3,NEW,A,,,2,1,0.689,0,101,101,101,1,,,,,,,,,,,,,,,,,,,,,,,,,,
,,,,,,,,,,,,,,,,3,2021-08-26_09h55.12.332,Session1,2020.2.10,Win32,60,,,,,,,,,,,,,,,,,,,,,,,,,,,,,,,,,,SoundMST/Siren_E.wav,2,3,NEW,A,,,2,1,1.827,0,102,102,102,1,,,,,,,,,,,,,,,,,,,,,,,,,,
,,,,,,,,,,,,,,,,3,2021-08-26_09h55.12.332,Session1,2020.2.10,Win32,60,,,,,,,,,,,,,,,,,,,,,,,,,,,,,,,,,,SoundMST/Droplet_B.wav,1,1,OLD,A,,,1,1,1.873,0,103,103,103,1,,,,,,,,,,,,,,,,,,,,,,,,,,
,,,,,,,,,,,,,,,,3,2021-08-26_09h55.12.332,Session1,2020.2.10,Win32,60,,,,,,,,,,,,,,,,,,,,,,,,,,,,,,,,,,SoundMST/Wind_B.wav,1,1,OLD,A,,,1,1,0.62,0,104,104,104,1,,,,,,,,,,,,,,,,,,,,,,,,,,
,,,,,,,,,,,,,,,,3,2021-08-26_09h55.12.332,Session1,2020.2.10,Win32,60,,,,,,,,,,,,,,,,,,,,,,,,,,,,,,,,,,SoundMST/IceDrop.wav,2,3,NEW,A,,,1,0,5.076,0,105,105,105,1,,,,,,,,,,,,,,,,,,,,,,,,,,
,,,,,,,,,,,,,,,,3,2021-08-26_09h55.12.332,Session1,2020.2.10,Win32,60,,,,,,,,,,,,,,,,,,,,,,,,,,,,,,,,,,SoundMST/Clap_D.wav,2,2,SIMILAR,A,,,2,1,2.522,0,106,106,106,1,,,,,,,,,,,,,,,,,,,,,,,,,,
,,,,,,,,,,,,,,,,3,2021-08-26_09h55.12.332,Session1,2020.2.10,Win32,60,,,,,,,,,,,,,,,,,,,,,,,,,,,,,,,,,,SoundMST/PaperRip.wav,2,3,NEW,A,,,2,1,2.053,0,107,107,107,1,,,,,,,,,,,,,,,,,,,,,,,,,,
,,,,,,,,,,,,,,,,3,2021-08-26_09h55.12.332,Session1,2020.2.10,Win32,60,,,,,,,,,,,,,,,,,,,,,,,,,,,,,,,,,,SoundMST/Chomp_A.wav,2,3,NEW,A,,,2,1,1.225,0,108,108,108,1,,,,,,,,,,,,,,,,,,,,,,,,,,
,,,,,,,,,,,,,,,,3,2021-08-26_09h55.12.332,Session1,2020.2.10,Win32,60,,,,,,,,,,,,,,,,,,,,,,,,,,,,,,,,,,SoundMST/Whistle_C.wav,2,2,SIMILAR,A,,,1,0,2.429,0,109,109,109,1,,,,,,,,,,,,,,,,,,,,,,,,,,
,,,,,,,,,,,,,,,,3,2021-08-26_09h55.12.332,Session1,2020.2.10,Win32,60,,,,,,,,,,,,,,,,,,,,,,,,,,,,,,,,,,SoundMST/Fireworks.wav,1,1,OLD,A,,,1,1,1.103,0,110,110,110,1,,,,,,,,,,,,,,,,,,,,,,,,,,
,,,,,,,,,,,,,,,,3,2021-08-26_09h55.12.332,Session1,2020.2.10,Win32,60,,,,,,,,,,,,,,,,,,,,,,,,,,,,,,,,,,SoundMST/Crow_A.wav,2,3,NEW,A,,,2,1,1.087,0,111,111,111,1,,,,,,,,,,,,,,,,,,,,,,,,,,
,,,,,,,,,,,,,,,,3,2021-08-26_09h55.12.332,Session1,2020.2.10,Win32,60,,,,,,,,,,,,,,,,,,,,,,,,,,,,,,,,,,SoundMST/Bagpipe.wav,1,1,OLD,A,,,1,1,0.819,0,112,112,112,1,,,,,,,,,,,,,,,,,,,,,,,,,,
,,,,,,,,,,,,,,,,3,2021-08-26_09h55.12.332,Session1,2020.2.10,Win32,60,,,,,,,,,,,,,,,,,,,,,,,,,,,,,,,,,,SoundMST/Bowlingpins.wav,2,3,NEW,A,,,1,0,4.36,0,113,113,113,1,,,,,,,,,,,,,,,,,,,,,,,,,,
,,,,,,,,,,,,,,,,3,2021-08-26_09h55.12.332,Session1,2020.2.10,Win32,60,,,,,,,,,,,,,,,,,,,,,,,,,,,,,,,,,,SoundMST/Siren_A.wav,2,2,SIMILAR,A,,,2,1,4.236,0,114,114,114,1,,,,,,,,,,,,,,,,,,,,,,,,,,
,,,,,,,,,,,,,,,,3,2021-08-26_09h55.12.332,Session1,2020.2.10,Win32,60,,,,,,,,,,,,,,,,,,,,,,,,,,,,,,,,,,SoundMST/ManWhistle.wav,2,3,NEW,A,,,2,1,1.455,0,115,115,115,1,,,,,,,,,,,,,,,,,,,,,,,,,,
,,,,,,,,,,,,,,,,3,2021-08-26_09h55.12.332,Session1,2020.2.10,Win32,60,,,,,,,,,,,,,,,,,,,,,,,,,,,,,,,,,,SoundMST/Coin_D.wav,2,3,NEW,A,,,2,1,1.354,0,116,116,116,1,,,,,,,,,,,,,,,,,,,,,,,,,,
,,,,,,,,,,,,,,,,3,2021-08-26_09h55.12.332,Session1,2020.2.10,Win32,60,,,,,,,,,,,,,,,,,,,,,,,,,,,,,,,,,,SoundMST/PaperRip.wav,1,1,OLD,A,,,1,1,1.739,0,117,117,117,1,,,,,,,,,,,,,,,,,,,,,,,,,,
,,,,,,,,,,,,,,,,3,2021-08-26_09h55.12.332,Session1,2020.2.10,Win32,60,,,,,,,,,,,,,,,,,,,,,,,,,,,,,,,,,,SoundMST/Helicopter_A.wav,2,3,NEW,A,,,2,1,4.053,0,118,118,118,1,,,,,,,,,,,,,,,,,,,,,,,,,,
,,,,,,,,,,,,,,,,3,2021-08-26_09h55.12.332,Session1,2020.2.10,Win32,60,,,,,,,,,,,,,,,,,,,,,,,,,,,,,,,,,,SoundMST/Bubbles_A.wav,2,3,NEW,A,,,1,0,1.525,0,119,119,119,1,,,,,,,,,,,,,,,,,,,,,,,,,,
,,,,,,,,,,,,,,,,3,2021-08-26_09h55.12.332,Session1,2020.2.10,Win32,60,,,,,,,,,,,,,,,,,,,,,,,,,,,,,,,,,,SoundMST/Chomp_C.wav,2,2,SIMILAR,A,,,2,1,1.16,0,120,120,120,1,,,,,,,,,,,,,,,,,,,,,,,,,,
,,,,,,,,,,,,,,,,3,2021-08-26_09h55.12.332,Session1,2020.2.10,Win32,60,,,,,,,,,,,,,,,,,,,,,,,,,,,,,,,,,,SoundMST/Crow_A.wav,1,1,OLD,A,,,1,1,0.961,0,121,121,121,1,,,,,,,,,,,,,,,,,,,,,,,,,,
,,,,,,,,,,,,,,,,3,2021-08-26_09h55.12.332,Session1,2020.2.10,Win32,60,,,,,,,,,,,,,,,,,,,,,,,,,,,,,,,,,,SoundMST/IceDrop.wav,1,1,OLD,A,,,1,1,1.091,0,122,122,122,1,,,,,,,,,,,,,,,,,,,,,,,,,,
,,,,,,,,,,,,,,,,3,2021-08-26_09h55.12.332,Session1,2020.2.10,Win32,60,,,,,,,,,,,,,,,,,,,,,,,,,,,,,,,,,,SoundMST/ManWhistle_E.wav,2,2,SIMILAR,A,,,1,0,3.546,0,123,123,123,1,,,,,,,,,,,,,,,,,,,,,,,,,,
,,,,,,,,,,,,,,,,3,2021-08-26_09h55.12.332,Session1,2020.2.10,Win32,60,,,,,,,,,,,,,,,,,,,,,,,,,,,,,,,,,,SoundMST/Helicopter_A.wav,1,1,OLD,A,,,1,1,1.11,0,124,124,124,1,,,,,,,,,,,,,,,,,,,,,,,,,,
,,,,,,,,,,,,,,,,3,2021-08-26_09h55.12.332,Session1,2020.2.10,Win32,60,,,,,,,,,,,,,,,,,,,,,,,,,,,,,,,,,,SoundMST/Bowlingpins.wav,1,1,OLD,A,,,1,1,0.59,0,125,125,125,1,,,,,,,,,,,,,,,,,,,,,,,,,,
,,,,,,,,,,,,,,,,3,2021-08-26_09h55.12.332,Session1,2020.2.10,Win32,60,,,,,,,,,,,,,,,,,,,,,,,,,,,,,,,,,,SoundMST/Coin_E.wav,2,2,SIMILAR,A,,,2,1,3.222,0,126,126,126,1,,,,,,,,,,,,,,,,,,,,,,,,,,
,,,,,,,,,,,,,,,,3,2021-08-26_09h55.12.332,Session1,2020.2.10,Win32,60,,,,,,,,,,,,,,,,,,,,,,,,,,,,,,,,,,SoundMST/Bubbles_B.wav,2,2,SIMILAR,A,,,1,0,1.088,0,127,127,127,1,,,,,,,,,,,,,,,,,,,,,,,,,,
,,,,,,,,,,,,,,,,3,2021-08-26_09h55.12.332,Session1,2020.2.10,Win32,60,,,,,,,,,,,,,,,,,,,,,,,,,,,,,,,,,,,,,,,,,,,,,,,,,0,0,0,0,1,,,,,,,,,,,,,,,,,,,,,
,,,,,,,,,,,,,,,,3,2021-08-26_09h55.12.332,Session1,2020.2.10,Win32,60,,,,,,,,,,,,,,,,,,,,,space,14.054,,,,,,,,,,,,,,,,,,,,,,,,,,,,,,,,space,24.449,2,7.255,0,0,0,16,1,SoundMST/Phone_F.wav,SoundMST/Phone_E.wav,SIMILAR,,,,,,,,,
<<<<<<< HEAD
,,,,,,,,,,,,,,,,3,2021-08-26_09h55.12.332,Session1,2020.2.10,Win32,60,,,,,,,,,,,,,,,,,,,,,,,,,,,,,,,,,,,,,,,,,,,,,,,,,,,,,,,,1,2.804,0,1,1,82,1,SoundMST/Coin_D.wav,SoundMST/Elephant_A.wav,DIFFERENT,,,,,,,,,
=======
,,,,,,,,,,,,,,,,3,2021-08-26_09h55.12.332,Session1,2020.2.10,Win32,60,,,,,,,,,,,,,,,,,,,,,,,,,,,,,,,,,,,,,,,,,,,,,,,,,,,,,,,,4,2.804,0,1,1,82,1,SoundMST/Coin_D.wav,SoundMST/Elephant_A.wav,DIFFERENT,,,,,,,,,
>>>>>>> 3c6b67de205bc033bdd7ba55cb73065ed20c0e27
,,,,,,,,,,,,,,,,3,2021-08-26_09h55.12.332,Session1,2020.2.10,Win32,60,,,,,,,,,,,,,,,,,,,,,,,,,,,,,,,,,,,,,,,,,,,,,,,,,,,,,,,,2,9.255,0,2,2,4,1,SoundMST/Chime_D.wav,SoundMST/Chime_A.wav,SIMILAR,,,,,,,,,
,,,,,,,,,,,,,,,,3,2021-08-26_09h55.12.332,Session1,2020.2.10,Win32,60,,,,,,,,,,,,,,,,,,,,,,,,,,,,,,,,,,,,,,,,,,,,,,,,,,,,,,,,4,1.938,0,3,3,25,1,SoundMST/Puff_A.wav,SoundMST/Puff_A.wav,SAME,,,,,,,,,
,,,,,,,,,,,,,,,,3,2021-08-26_09h55.12.332,Session1,2020.2.10,Win32,60,,,,,,,,,,,,,,,,,,,,,,,,,,,,,,,,,,,,,,,,,,,,,,,,,,,,,,,,3,13.032,0,4,4,18,1,SoundMST/Pour_F.wav,SoundMST/Pour_C.wav,SIMILAR,,,,,,,,,
,,,,,,,,,,,,,,,,3,2021-08-26_09h55.12.332,Session1,2020.2.10,Win32,60,,,,,,,,,,,,,,,,,,,,,,,,,,,,,,,,,,,,,,,,,,,,,,,,,,,,,,,,4,1.661,0,5,5,38,1,SoundMST/Bubbles_A.wav,SoundMST/Bubbles_A.wav,SAME,,,,,,,,,
,,,,,,,,,,,,,,,,3,2021-08-26_09h55.12.332,Session1,2020.2.10,Win32,60,,,,,,,,,,,,,,,,,,,,,,,,,,,,,,,,,,,,,,,,,,,,,,,,,,,,,,,,3,2.858,0,6,6,5,1,SoundMST/Chomp_A.wav,SoundMST/Chomp_C.wav,SIMILAR,,,,,,,,,
,,,,,,,,,,,,,,,,3,2021-08-26_09h55.12.332,Session1,2020.2.10,Win32,60,,,,,,,,,,,,,,,,,,,,,,,,,,,,,,,,,,,,,,,,,,,,,,,,,,,,,,,,3,3.866,0,7,7,9,1,SoundMST/Dog_H.wav,SoundMST/Dog_I.wav,SIMILAR,,,,,,,,,
,,,,,,,,,,,,,,,,3,2021-08-26_09h55.12.332,Session1,2020.2.10,Win32,60,,,,,,,,,,,,,,,,,,,,,,,,,,,,,,,,,,,,,,,,,,,,,,,,,,,,,,,,4,1.193,0,8,8,52,1,SoundMST/Phone_F.wav,SoundMST/Phone_F.wav,SAME,,,,,,,,,
,,,,,,,,,,,,,,,,3,2021-08-26_09h55.12.332,Session1,2020.2.10,Win32,60,,,,,,,,,,,,,,,,,,,,,,,,,,,,,,,,,,,,,,,,,,,,,,,,,,,,,,,,1,1.556,0,9,9,80,1,SoundMST/Chomp_A.wav,SoundMST/Bird_A.wav,DIFFERENT,,,,,,,,,
,,,,,,,,,,,,,,,,3,2021-08-26_09h55.12.332,Session1,2020.2.10,Win32,60,,,,,,,,,,,,,,,,,,,,,,,,,,,,,,,,,,,,,,,,,,,,,,,,,,,,,,,,4,1.955,0,10,10,53,1,SoundMST/Piano_D.wav,SoundMST/Piano_D.wav,SAME,,,,,,,,,
,,,,,,,,,,,,,,,,3,2021-08-26_09h55.12.332,Session1,2020.2.10,Win32,60,,,,,,,,,,,,,,,,,,,,,,,,,,,,,,,,,,,,,,,,,,,,,,,,,,,,,,,,4,1.772,0,11,11,54,1,SoundMST/Pour_F.wav,SoundMST/Pour_F.wav,SAME,,,,,,,,,
,,,,,,,,,,,,,,,,3,2021-08-26_09h55.12.332,Session1,2020.2.10,Win32,60,,,,,,,,,,,,,,,,,,,,,,,,,,,,,,,,,,,,,,,,,,,,,,,,,,,,,,,,4,1.252,0,12,12,69,1,SoundMST/Airplane_B.wav,SoundMST/Airplane_B.wav,DIFFERENT,,,,,,,,,
,,,,,,,,,,,,,,,,3,2021-08-26_09h55.12.332,Session1,2020.2.10,Win32,60,,,,,,,,,,,,,,,,,,,,,,,,,,,,,,,,,,,,,,,,,,,,,,,,,,,,,,,,1,1.62,0,13,13,70,1,SoundMST/Camera.wav,SoundMST/Sleighbells_B.wav,DIFFERENT,,,,,,,,,
,,,,,,,,,,,,,,,,3,2021-08-26_09h55.12.332,Session1,2020.2.10,Win32,60,,,,,,,,,,,,,,,,,,,,,,,,,,,,,,,,,,,,,,,,,,,,,,,,,,,,,,,,3,5.187,0,14,14,39,1,SoundMST/CarStart_E.wav,SoundMST/CarStart_E.wav,SAME,,,,,,,,,
,,,,,,,,,,,,,,,,3,2021-08-26_09h55.12.332,Session1,2020.2.10,Win32,60,,,,,,,,,,,,,,,,,,,,,,,,,,,,,,,,,,,,,,,,,,,,,,,,,,,,,,,,3,2.451,0,15,15,22,1,SoundMST/Whistle_B.wav,SoundMST/Whistle_C.wav,SIMILAR,,,,,,,,,
,,,,,,,,,,,,,,,,3,2021-08-26_09h55.12.332,Session1,2020.2.10,Win32,60,,,,,,,,,,,,,,,,,,,,,,,,,,,,,,,,,,,,,,,,,,,,,,,,,,,,,,,,1,1.84,0,16,16,74,1,SoundMST/Bullfrog.wav,SoundMST/Chicken_A.wav,DIFFERENT,,,,,,,,,
,,,,,,,,,,,,,,,,3,2021-08-26_09h55.12.332,Session1,2020.2.10,Win32,60,,,,,,,,,,,,,,,,,,,,,,,,,,,,,,,,,,,,,,,,,,,,,,,,,,,,,,,,4,1.383,0,17,17,42,1,SoundMST/Clap_A.wav,SoundMST/Clap_A.wav,SAME,,,,,,,,,
,,,,,,,,,,,,,,,,3,2021-08-26_09h55.12.332,Session1,2020.2.10,Win32,60,,,,,,,,,,,,,,,,,,,,,,,,,,,,,,,,,,,,,,,,,,,,,,,,,,,,,,,,4,1.174,0,18,18,49,1,SoundMST/Footsteps_C.wav,SoundMST/Footsteps_C.wav,SAME,,,,,,,,,
,,,,,,,,,,,,,,,,3,2021-08-26_09h55.12.332,Session1,2020.2.10,Win32,60,,,,,,,,,,,,,,,,,,,,,,,,,,,,,,,,,,,,,,,,,,,,,,,,,,,,,,,,4,1.193,0,19,19,37,1,SoundMST/Bird_C.wav,SoundMST/Bird_C.wav,SAME,,,,,,,,,
,,,,,,,,,,,,,,,,3,2021-08-26_09h55.12.332,Session1,2020.2.10,Win32,60,,,,,,,,,,,,,,,,,,,,,,,,,,,,,,,,,,,,,,,,,,,,,,,,,,,,,,,,4,0.993,0,20,20,51,1,SoundMST/ManWhistle.wav,SoundMST/ManWhistle.wav,SAME,,,,,,,,,
,,,,,,,,,,,,,,,,3,2021-08-26_09h55.12.332,Session1,2020.2.10,Win32,60,,,,,,,,,,,,,,,,,,,,,,,,,,,,,,,,,,,,,,,,,,,,,,,,,,,,,,,,3,1.485,0,21,21,23,1,SoundMST/Writing_A.wav,SoundMST/Writing_C.wav,SIMILAR,,,,,,,,,
,,,,,,,,,,,,,,,,3,2021-08-26_09h55.12.332,Session1,2020.2.10,Win32,60,,,,,,,,,,,,,,,,,,,,,,,,,,,,,,,,,,,,,,,,,,,,,,,,,,,,,,,,1,1.553,0,22,22,77,1,SoundMST/Bubbles_A.wav,SoundMST/Duck_A.wav,DIFFERENT,,,,,,,,,
,,,,,,,,,,,,,,,,3,2021-08-26_09h55.12.332,Session1,2020.2.10,Win32,60,,,,,,,,,,,,,,,,,,,,,,,,,,,,,,,,,,,,,,,,,,,,,,,,,,,,,,,,1,1.317,0,23,23,68,1,SoundMST/Chicken_A.wav,SoundMST/Cello.wav,DIFFERENT,,,,,,,,,
,,,,,,,,,,,,,,,,3,2021-08-26_09h55.12.332,Session1,2020.2.10,Win32,60,,,,,,,,,,,,,,,,,,,,,,,,,,,,,,,,,,,,,,,,,,,,,,,,,,,,,,,,1,1.651,0,24,24,62,1,SoundMST/Hammer_A.wav,SoundMST/Crow_A.wav,DIFFERENT,,,,,,,,,
,,,,,,,,,,,,,,,,3,2021-08-26_09h55.12.332,Session1,2020.2.10,Win32,60,,,,,,,,,,,,,,,,,,,,,,,,,,,,,,,,,,,,,,,,,,,,,,,,,,,,,,,,4,1.259,0,25,25,43,1,SoundMST/Coin_D.wav,SoundMST/Coin_D.wav,SAME,,,,,,,,,
,,,,,,,,,,,,,,,,3,2021-08-26_09h55.12.332,Session1,2020.2.10,Win32,60,,,,,,,,,,,,,,,,,,,,,,,,,,,,,,,,,,,,,,,,,,,,,,,,,,,,,,,,3,2.902,0,26,26,2,1,SoundMST/Bubbles_A.wav,SoundMST/Bubbles_B.wav,SIMILAR,,,,,,,,,
,,,,,,,,,,,,,,,,3,2021-08-26_09h55.12.332,Session1,2020.2.10,Win32,60,,,,,,,,,,,,,,,,,,,,,,,,,,,,,,,,,,,,,,,,,,,,,,,,,,,,,,,,4,1.289,0,27,27,45,1,SoundMST/Dog_H.wav,SoundMST/Dog_H.wav,SAME,,,,,,,,,
,,,,,,,,,,,,,,,,3,2021-08-26_09h55.12.332,Session1,2020.2.10,Win32,60,,,,,,,,,,,,,,,,,,,,,,,,,,,,,,,,,,,,,,,,,,,,,,,,,,,,,,,,3,1.622,0,28,28,7,1,SoundMST/Coin_D.wav,SoundMST/Coin_E.wav,SIMILAR,,,,,,,,,
,,,,,,,,,,,,,,,,3,2021-08-26_09h55.12.332,Session1,2020.2.10,Win32,60,,,,,,,,,,,,,,,,,,,,,,,,,,,,,,,,,,,,,,,,,,,,,,,,,,,,,,,,4,1.547,0,29,29,50,1,SoundMST/Laugh_A.wav,SoundMST/Laugh_A.wav,SAME,,,,,,,,,
,,,,,,,,,,,,,,,,3,2021-08-26_09h55.12.332,Session1,2020.2.10,Win32,60,,,,,,,,,,,,,,,,,,,,,,,,,,,,,,,,,,,,,,,,,,,,,,,,,,,,,,,,4,1.026,0,30,30,32,1,SoundMST/Cow.wav,SoundMST/Cow.wav,SAME,,,,,,,,,
,,,,,,,,,,,,,,,,3,2021-08-26_09h55.12.332,Session1,2020.2.10,Win32,60,,,,,,,,,,,,,,,,,,,,,,,,,,,,,,,,,,,,,,,,,,,,,,,,,,,,,,,,4,0.853,0,31,31,47,1,SoundMST/Elephant_C.wav,SoundMST/Elephant_C.wav,SAME,,,,,,,,,
,,,,,,,,,,,,,,,,3,2021-08-26_09h55.12.332,Session1,2020.2.10,Win32,60,,,,,,,,,,,,,,,,,,,,,,,,,,,,,,,,,,,,,,,,,,,,,,,,,,,,,,,,1,1.525,0,32,32,60,1,SoundMST/Typing.wav,SoundMST/Bullfrog.wav,DIFFERENT,,,,,,,,,
,,,,,,,,,,,,,,,,3,2021-08-26_09h55.12.332,Session1,2020.2.10,Win32,60,,,,,,,,,,,,,,,,,,,,,,,,,,,,,,,,,,,,,,,,,,,,,,,,,,,,,,,,1,2.354,0,33,33,64,1,SoundMST/Horse.wav,SoundMST/Bowlingpins.wav,DIFFERENT,,,,,,,,,
,,,,,,,,,,,,,,,,3,2021-08-26_09h55.12.332,Session1,2020.2.10,Win32,60,,,,,,,,,,,,,,,,,,,,,,,,,,,,,,,,,,,,,,,,,,,,,,,,,,,,,,,,4,1.32,0,34,34,40,1,SoundMST/Chime_D.wav,SoundMST/Chime_D.wav,SAME,,,,,,,,,
,,,,,,,,,,,,,,,,3,2021-08-26_09h55.12.332,Session1,2020.2.10,Win32,60,,,,,,,,,,,,,,,,,,,,,,,,,,,,,,,,,,,,,,,,,,,,,,,,,,,,,,,,4,1.092,0,35,35,31,1,SoundMST/Guitar_B.wav,SoundMST/Guitar_B.wav,SAME,,,,,,,,,
,,,,,,,,,,,,,,,,3,2021-08-26_09h55.12.332,Session1,2020.2.10,Win32,60,,,,,,,,,,,,,,,,,,,,,,,,,,,,,,,,,,,,,,,,,,,,,,,,,,,,,,,,4,1.26,0,36,36,46,1,SoundMST/Duck_B.wav,SoundMST/Duck_B.wav,SAME,,,,,,,,,
,,,,,,,,,,,,,,,,3,2021-08-26_09h55.12.332,Session1,2020.2.10,Win32,60,,,,,,,,,,,,,,,,,,,,,,,,,,,,,,,,,,,,,,,,,,,,,,,,,,,,,,,,3,1.336,0,37,37,0,1,SoundMST/Baby_C.wav,SoundMST/Baby_B.wav,SIMILAR,,,,,,,,,
,,,,,,,,,,,,,,,,3,2021-08-26_09h55.12.332,Session1,2020.2.10,Win32,60,,,,,,,,,,,,,,,,,,,,,,,,,,,,,,,,,,,,,,,,,,,,,,,,,,,,,,,,4,1.388,0,38,38,57,1,SoundMST/Trumpet_B.wav,SoundMST/Trumpet_B.wav,SAME,,,,,,,,,
,,,,,,,,,,,,,,,,3,2021-08-26_09h55.12.332,Session1,2020.2.10,Win32,60,,,,,,,,,,,,,,,,,,,,,,,,,,,,,,,,,,,,,,,,,,,,,,,,,,,,,,,,1,1.508,0,39,39,75,1,SoundMST/Baby_C.wav,SoundMST/Dog_I.wav,DIFFERENT,,,,,,,,,
,,,,,,,,,,,,,,,,3,2021-08-26_09h55.12.332,Session1,2020.2.10,Win32,60,,,,,,,,,,,,,,,,,,,,,,,,,,,,,,,,,,,,,,,,,,,,,,,,,,,,,,,,4,1.993,0,40,40,33,1,SoundMST/Buzz.wav,SoundMST/Buzz.wav,SAME,,,,,,,,,
,,,,,,,,,,,,,,,,3,2021-08-26_09h55.12.332,Session1,2020.2.10,Win32,60,,,,,,,,,,,,,,,,,,,,,,,,,,,,,,,,,,,,,,,,,,,,,,,,,,,,,,,,1,1.755,0,41,41,73,1,SoundMST/Toilet_B.wav,SoundMST/Horse.wav,DIFFERENT,,,,,,,,,
,,,,,,,,,,,,,,,,3,2021-08-26_09h55.12.332,Session1,2020.2.10,Win32,60,,,,,,,,,,,,,,,,,,,,,,,,,,,,,,,,,,,,,,,,,,,,,,,,,,,,,,,,4,1.39,0,42,42,56,1,SoundMST/Snore_C.wav,SoundMST/Snore_C.wav,SAME,,,,,,,,,
,,,,,,,,,,,,,,,,3,2021-08-26_09h55.12.332,Session1,2020.2.10,Win32,60,,,,,,,,,,,,,,,,,,,,,,,,,,,,,,,,,,,,,,,,,,,,,,,,,,,,,,,,1,1.557,0,43,43,76,1,SoundMST/Bird_C.wav,SoundMST/Chime_A.wav,DIFFERENT,,,,,,,,,
,,,,,,,,,,,,,,,,3,2021-08-26_09h55.12.332,Session1,2020.2.10,Win32,60,,,,,,,,,,,,,,,,,,,,,,,,,,,,,,,,,,,,,,,,,,,,,,,,,,,,,,,,3,1.559,0,44,44,12,1,SoundMST/Faucet_A.wav,SoundMST/Faucet_C.wav,SIMILAR,,,,,,,,,
,,,,,,,,,,,,,,,,3,2021-08-26_09h55.12.332,Session1,2020.2.10,Win32,60,,,,,,,,,,,,,,,,,,,,,,,,,,,,,,,,,,,,,,,,,,,,,,,,,,,,,,,,1,1.49,0,45,45,72,1,SoundMST/Steam.wav,SoundMST/Toilet_B.wav,DIFFERENT,,,,,,,,,
,,,,,,,,,,,,,,,,3,2021-08-26_09h55.12.332,Session1,2020.2.10,Win32,60,,,,,,,,,,,,,,,,,,,,,,,,,,,,,,,,,,,,,,,,,,,,,,,,,,,,,,,,3,1.453,0,46,46,11,1,SoundMST/Elephant_C.wav,SoundMST/Elephant_A.wav,SIMILAR,,,,,,,,,
,,,,,,,,,,,,,,,,3,2021-08-26_09h55.12.332,Session1,2020.2.10,Win32,60,,,,,,,,,,,,,,,,,,,,,,,,,,,,,,,,,,,,,,,,,,,,,,,,,,,,,,,,4,1.486,0,47,47,30,1,SoundMST/PaperRip.wav,SoundMST/PaperRip.wav,SAME,,,,,,,,,
,,,,,,,,,,,,,,,,3,2021-08-26_09h55.12.332,Session1,2020.2.10,Win32,60,,,,,,,,,,,,,,,,,,,,,,,,,,,,,,,,,,,,,,,,,,,,,,,,,,,,,,,,4,1.434,0,48,48,26,1,SoundMST/Droplet_B.wav,SoundMST/Droplet_B.wav,SAME,,,,,,,,,
,,,,,,,,,,,,,,,,3,2021-08-26_09h55.12.332,Session1,2020.2.10,Win32,60,,,,,,,,,,,,,,,,,,,,,,,,,,,,,,,,,,,,,,,,,,,,,,,,,,,,,,,,4,2.035,0,49,49,44,1,SoundMST/Cough_I.wav,SoundMST/Cough_I.wav,SAME,,,,,,,,,
,,,,,,,,,,,,,,,,3,2021-08-26_09h55.12.332,Session1,2020.2.10,Win32,60,,,,,,,,,,,,,,,,,,,,,,,,,,,,,,,,,,,,,,,,,,,,,,,,,,,,,,,,3,1.786,0,50,50,6,1,SoundMST/Clap_A.wav,SoundMST/Clap_D.wav,SIMILAR,,,,,,,,,
,,,,,,,,,,,,,,,,3,2021-08-26_09h55.12.332,Session1,2020.2.10,Win32,60,,,,,,,,,,,,,,,,,,,,,,,,,,,,,,,,,,,,,,,,,,,,,,,,,,,,,,,,3,2.052,0,51,51,19,1,SoundMST/Siren_E.wav,SoundMST/Siren_A.wav,SIMILAR,,,,,,,,,
,,,,,,,,,,,,,,,,3,2021-08-26_09h55.12.332,Session1,2020.2.10,Win32,60,,,,,,,,,,,,,,,,,,,,,,,,,,,,,,,,,,,,,,,,,,,,,,,,,,,,,,,,3,1.888,0,52,52,10,1,SoundMST/Duck_B.wav,SoundMST/Duck_A.wav,SIMILAR,,,,,,,,,
,,,,,,,,,,,,,,,,3,2021-08-26_09h55.12.332,Session1,2020.2.10,Win32,60,,,,,,,,,,,,,,,,,,,,,,,,,,,,,,,,,,,,,,,,,,,,,,,,,,,,,,,,4,1.103,0,53,53,35,1,SoundMST/Goat_C.wav,SoundMST/Goat_C.wav,SAME,,,,,,,,,
,,,,,,,,,,,,,,,,3,2021-08-26_09h55.12.332,Session1,2020.2.10,Win32,60,,,,,,,,,,,,,,,,,,,,,,,,,,,,,,,,,,,,,,,,,,,,,,,,,,,,,,,,1,2.587,0,54,54,67,1,SoundMST/Cuckoo_A.wav,SoundMST/Mosquito_B.wav,DIFFERENT,,,,,,,,,
,,,,,,,,,,,,,,,,3,2021-08-26_09h55.12.332,Session1,2020.2.10,Win32,60,,,,,,,,,,,,,,,,,,,,,,,,,,,,,,,,,,,,,,,,,,,,,,,,,,,,,,,,4,1.323,0,55,55,28,1,SoundMST/Fireworks.wav,SoundMST/Fireworks.wav,SAME,,,,,,,,,
,,,,,,,,,,,,,,,,3,2021-08-26_09h55.12.332,Session1,2020.2.10,Win32,60,,,,,,,,,,,,,,,,,,,,,,,,,,,,,,,,,,,,,,,,,,,,,,,,,,,,,,,,4,1.635,0,56,56,58,1,SoundMST/Whistle_B.wav,SoundMST/Whistle_B.wav,SAME,,,,,,,,,
,,,,,,,,,,,,,,,,3,2021-08-26_09h55.12.332,Session1,2020.2.10,Win32,60,,,,,,,,,,,,,,,,,,,,,,,,,,,,,,,,,,,,,,,,,,,,,,,,,,,,,,,,4,2.303,0,57,57,29,1,SoundMST/Cup.wav,SoundMST/Cup.wav,SAME,,,,,,,,,
,,,,,,,,,,,,,,,,3,2021-08-26_09h55.12.332,Session1,2020.2.10,Win32,60,,,,,,,,,,,,,,,,,,,,,,,,,,,,,,,,,,,,,,,,,,,,,,,,,,,,,,,,1,1.918,0,58,58,59,1,SoundMST/Thunder_A.wav,SoundMST/Cuckoo_A.wav,DIFFERENT,,,,,,,,,
,,,,,,,,,,,,,,,,3,2021-08-26_09h55.12.332,Session1,2020.2.10,Win32,60,,,,,,,,,,,,,,,,,,,,,,,,,,,,,,,,,,,,,,,,,,,,,,,,,,,,,,,,4,1.358,0,59,59,48,1,SoundMST/Faucet_A.wav,SoundMST/Faucet_A.wav,SAME,,,,,,,,,
,,,,,,,,,,,,,,,,3,2021-08-26_09h55.12.332,Session1,2020.2.10,Win32,60,,,,,,,,,,,,,,,,,,,,,,,,,,,,,,,,,,,,,,,,,,,,,,,,,,,,,,,,1,1.436,0,60,60,81,1,SoundMST/Clap_A.wav,SoundMST/Bubbles_B.wav,DIFFERENT,,,,,,,,,
,,,,,,,,,,,,,,,,3,2021-08-26_09h55.12.332,Session1,2020.2.10,Win32,60,,,,,,,,,,,,,,,,,,,,,,,,,,,,,,,,,,,,,,,,,,,,,,,,,,,,,,,,3,1.354,0,61,61,3,1,SoundMST/CarStart_E.wav,SoundMST/CarStart_D.wav,SIMILAR,,,,,,,,,
,,,,,,,,,,,,,,,,3,2021-08-26_09h55.12.332,Session1,2020.2.10,Win32,60,,,,,,,,,,,,,,,,,,,,,,,,,,,,,,,,,,,,,,,,,,,,,,,,,,,,,,,,1,2.42,0,62,62,78,1,SoundMST/CarStart_E.wav,SoundMST/Coin_E.wav,DIFFERENT,,,,,,,,,
,,,,,,,,,,,,,,,,3,2021-08-26_09h55.12.332,Session1,2020.2.10,Win32,60,,,,,,,,,,,,,,,,,,,,,,,,,,,,,,,,,,,,,,,,,,,,,,,,,,,,,,,,1,1.32,0,63,63,71,1,SoundMST/Sleighbells_B.wav,SoundMST/Thunder_A.wav,DIFFERENT,,,,,,,,,
,,,,,,,,,,,,,,,,3,2021-08-26_09h55.12.332,Session1,2020.2.10,Win32,60,,,,,,,,,,,,,,,,,,,,,,,,,,,,,,,,,,,,,,,,,,,,,,,,,,,,,,,,3,1.508,0,64,64,13,1,SoundMST/Footsteps_C.wav,SoundMST/Footsteps_F.wav,SIMILAR,,,,,,,,,
,,,,,,,,,,,,,,,,3,2021-08-26_09h55.12.332,Session1,2020.2.10,Win32,60,,,,,,,,,,,,,,,,,,,,,,,,,,,,,,,,,,,,,,,,,,,,,,,,,,,,,,,,3,1.773,0,65,65,8,1,SoundMST/Cough_I.wav,SoundMST/Cough_J.wav,SIMILAR,,,,,,,,,
,,,,,,,,,,,,,,,,3,2021-08-26_09h55.12.332,Session1,2020.2.10,Win32,60,,,,,,,,,,,,,,,,,,,,,,,,,,,,,,,,,,,,,,,,,,,,,,,,,,,,,,,,3,1.311,0,66,66,14,1,SoundMST/Laugh_A.wav,SoundMST/Laugh_D.wav,SIMILAR,,,,,,,,,
,,,,,,,,,,,,,,,,3,2021-08-26_09h55.12.332,Session1,2020.2.10,Win32,60,,,,,,,,,,,,,,,,,,,,,,,,,,,,,,,,,,,,,,,,,,,,,,,,,,,,,,,,3,1.494,0,67,67,15,1,SoundMST/ManWhistle.wav,SoundMST/ManWhistle_E.wav,SIMILAR,,,,,,,,,
,,,,,,,,,,,,,,,,3,2021-08-26_09h55.12.332,Session1,2020.2.10,Win32,60,,,,,,,,,,,,,,,,,,,,,,,,,,,,,,,,,,,,,,,,,,,,,,,,,,,,,,,,1,3.12,0,68,68,65,1,SoundMST/Bowlingpins.wav,SoundMST/Steam.wav,DIFFERENT,,,,,,,,,
,,,,,,,,,,,,,,,,3,2021-08-26_09h55.12.332,Session1,2020.2.10,Win32,60,,,,,,,,,,,,,,,,,,,,,,,,,,,,,,,,,,,,,,,,,,,,,,,,,,,,,,,,4,1.452,0,69,69,34,1,SoundMST/DialTone.wav,SoundMST/DialTone.wav,SAME,,,,,,,,,
,,,,,,,,,,,,,,,,3,2021-08-26_09h55.12.332,Session1,2020.2.10,Win32,60,,,,,,,,,,,,,,,,,,,,,,,,,,,,,,,,,,,,,,,,,,,,,,,,,,,,,,,,1,3.354,0,70,70,61,1,SoundMST/Cello.wav,SoundMST/Hammer_A.wav,DIFFERENT,,,,,,,,,
,,,,,,,,,,,,,,,,3,2021-08-26_09h55.12.332,Session1,2020.2.10,Win32,60,,,,,,,,,,,,,,,,,,,,,,,,,,,,,,,,,,,,,,,,,,,,,,,,,,,,,,,,4,1.435,0,71,71,36,1,SoundMST/Baby_C.wav,SoundMST/Baby_C.wav,SAME,,,,,,,,,
,,,,,,,,,,,,,,,,3,2021-08-26_09h55.12.332,Session1,2020.2.10,Win32,60,,,,,,,,,,,,,,,,,,,,,,,,,,,,,,,,,,,,,,,,,,,,,,,,,,,,,,,,1,1.355,0,72,72,79,1,SoundMST/Chime_D.wav,SoundMST/Baby_B.wav,DIFFERENT,,,,,,,,,
,,,,,,,,,,,,,,,,3,2021-08-26_09h55.12.332,Session1,2020.2.10,Win32,60,,,,,,,,,,,,,,,,,,,,,,,,,,,,,,,,,,,,,,,,,,,,,,,,,,,,,,,,4,1.409,0,73,73,55,1,SoundMST/Siren_E.wav,SoundMST/Siren_E.wav,SAME,,,,,,,,,
,,,,,,,,,,,,,,,,3,2021-08-26_09h55.12.332,Session1,2020.2.10,Win32,60,,,,,,,,,,,,,,,,,,,,,,,,,,,,,,,,,,,,,,,,,,,,,,,,,,,,,,,,3,1.491,0,74,74,21,1,SoundMST/Trumpet_B.wav,SoundMST/Trumpet_C.wav,SIMILAR,,,,,,,,,
,,,,,,,,,,,,,,,,3,2021-08-26_09h55.12.332,Session1,2020.2.10,Win32,60,,,,,,,,,,,,,,,,,,,,,,,,,,,,,,,,,,,,,,,,,,,,,,,,,,,,,,,,3,1.557,0,75,75,17,1,SoundMST/Piano_D.wav,SoundMST/Piano_C.wav,SIMILAR,,,,,,,,,
,,,,,,,,,,,,,,,,3,2021-08-26_09h55.12.332,Session1,2020.2.10,Win32,60,,,,,,,,,,,,,,,,,,,,,,,,,,,,,,,,,,,,,,,,,,,,,,,,,,,,,,,,4,1.004,0,76,76,27,1,SoundMST/Growl_H.wav,SoundMST/Growl_H.wav,SAME,,,,,,,,,
,,,,,,,,,,,,,,,,3,2021-08-26_09h55.12.332,Session1,2020.2.10,Win32,60,,,,,,,,,,,,,,,,,,,,,,,,,,,,,,,,,,,,,,,,,,,,,,,,,,,,,,,,3,1.769,0,77,77,20,1,SoundMST/Snore_C.wav,SoundMST/Snore_E.wav,SIMILAR,,,,,,,,,
,,,,,,,,,,,,,,,,3,2021-08-26_09h55.12.332,Session1,2020.2.10,Win32,60,,,,,,,,,,,,,,,,,,,,,,,,,,,,,,,,,,,,,,,,,,,,,,,,,,,,,,,,4,1.317,0,78,78,24,1,SoundMST/Wind_B.wav,SoundMST/Wind_B.wav,SAME,,,,,,,,,
,,,,,,,,,,,,,,,,3,2021-08-26_09h55.12.332,Session1,2020.2.10,Win32,60,,,,,,,,,,,,,,,,,,,,,,,,,,,,,,,,,,,,,,,,,,,,,,,,,,,,,,,,1,1.477,0,79,79,66,1,SoundMST/Crow_A.wav,SoundMST/Typing.wav,DIFFERENT,,,,,,,,,
,,,,,,,,,,,,,,,,3,2021-08-26_09h55.12.332,Session1,2020.2.10,Win32,60,,,,,,,,,,,,,,,,,,,,,,,,,,,,,,,,,,,,,,,,,,,,,,,,,,,,,,,,1,1.869,0,80,80,63,1,SoundMST/Mosquito_B.wav,SoundMST/Camera.wav,DIFFERENT,,,,,,,,,
,,,,,,,,,,,,,,,,3,2021-08-26_09h55.12.332,Session1,2020.2.10,Win32,60,,,,,,,,,,,,,,,,,,,,,,,,,,,,,,,,,,,,,,,,,,,,,,,,,,,,,,,,4,1.155,0,81,81,41,1,SoundMST/Chomp_A.wav,SoundMST/Chomp_A.wav,SAME,,,,,,,,,
,,,,,,,,,,,,,,,,3,2021-08-26_09h55.12.332,Session1,2020.2.10,Win32,60,,,,,,,,,,,,,,,,,,,,,,,,,,,,,,,,,,,,,,,,,,,,,,,,,,,,,,,,3,1.524,0,82,82,1,1,SoundMST/Bird_C.wav,SoundMST/Bird_A.wav,SIMILAR,,,,,,,,,
<<<<<<< HEAD
,,,,,,,,,,,,,,,,3,2021-08-26_09h55.12.332,Session1,2020.2.10,Win32,60,,,,,,,,,,,,,,,,,,,,,space,7.201,,,,,,,,,,,,,,,,,,,,,,,,,,,,,,,,,,,,,,,,,SoundMST/Hammer_A.wav,NEW,NA,space,18.835,tapping,5.663,0,0,0,32,1
,,,,,,,,,,,,,,,,3,2021-08-26_09h55.12.332,Session1,2020.2.10,Win32,60,,,,,,,,,,,,,,,,,,,,,,,,,,,,,,,,,,,,,,,,,,,,,,,,,,,,,,,,,,,,,,,SoundMST/Snore_E.wav,SIMILAR,NA,,,snoring,6.336,0,1,1,71,1
,,,,,,,,,,,,,,,,3,2021-08-26_09h55.12.332,Session1,2020.2.10,Win32,60,,,,,,,,,,,,,,,,,,,,,,,,,,,,,,,,,,,,,,,,,,,,,,,,,,,,,,,,,,,,,,,SoundMST/Airplane_B.wav,NEW,NA,,,airplane,4.074,0,2,2,36,1
,,,,,,,,,,,,,,,,3,2021-08-26_09h55.12.332,Session1,2020.2.10,Win32,60,,,,,,,,,,,,,,,,,,,,,,,,,,,,,,,,,,,,,,,,,,,,,,,,,,,,,,,,,,,,,,,SoundMST/Phone_F.wav,NEW,NA,,,telephone,3.77,0,3,3,15,1
,,,,,,,,,,,,,,,,3,2021-08-26_09h55.12.332,Session1,2020.2.10,Win32,60,,,,,,,,,,,,,,,,,,,,,,,,,,,,,,,,,,,,,,,,,,,,,,,,,,,,,,,,,,,,,,,SoundMST/Snore_C.wav,NEW,NA,,,gas,6.008,0,4,4,16,1
,,,,,,,,,,,,,,,,3,2021-08-26_09h55.12.332,Session1,2020.2.10,Win32,60,,,,,,,,,,,,,,,,,,,,,,,,,,,,,,,,,,,,,,,,,,,,,,,,,,,,,,,,,,,,,,,SoundMST/Dog_I.wav,SIMILAR,NA,,,dog,3.639,0,5,5,77,1
,,,,,,,,,,,,,,,,3,2021-08-26_09h55.12.332,Session1,2020.2.10,Win32,60,,,,,,,,,,,,,,,,,,,,,,,,,,,,,,,,,,,,,,,,,,,,,,,,,,,,,,,,,,,,,,,SoundMST/Horse.wav,NEW,NA,,,horse,3.362,0,6,6,35,1
,,,,,,,,,,,,,,,,3,2021-08-26_09h55.12.332,Session1,2020.2.10,Win32,60,,,,,,,,,,,,,,,,,,,,,,,,,,,,,,,,,,,,,,,,,,,,,,,,,,,,,,,,,,,,,,,SoundMST/Bubbles_A.wav,NEW,NA,,,bubles,4.49,0,7,7,63,1
,,,,,,,,,,,,,,,,3,2021-08-26_09h55.12.332,Session1,2020.2.10,Win32,60,,,,,,,,,,,,,,,,,,,,,,,,,,,,,,,,,,,,,,,,,,,,,,,,,,,,,,,,,,,,,,,SoundMST/Growl_H.wav,NEW,NA,,,lion,5.352,0,8,8,45,1
,,,,,,,,,,,,,,,,3,2021-08-26_09h55.12.332,Session1,2020.2.10,Win32,60,,,,,,,,,,,,,,,,,,,,,,,,,,,,,,,,,,,,,,,,,,,,,,,,,,,,,,,,,,,,,,,SoundMST/Chime_A.wav,SIMILAR,NA,,,bell,4.019,0,9,9,72,1
,,,,,,,,,,,,,,,,3,2021-08-26_09h55.12.332,Session1,2020.2.10,Win32,60,,,,,,,,,,,,,,,,,,,,,,,,,,,,,,,,,,,,,,,,,,,,,,,,,,,,,,,,,,,,,,,SoundMST/Cup.wav,NEW,NA,,,tipping tea cup,6.855,0,10,10,42,1
,,,,,,,,,,,,,,,,3,2021-08-26_09h55.12.332,Session1,2020.2.10,Win32,60,,,,,,,,,,,,,,,,,,,,,,,,,,,,,,,,,,,,,,,,,,,,,,,,,,,,,,,,,,,,,,,SoundMST/Cat_A.wav,NEW,NA,,,kitten,4.17,0,11,11,26,1
,,,,,,,,,,,,,,,,3,2021-08-26_09h55.12.332,Session1,2020.2.10,Win32,60,,,,,,,,,,,,,,,,,,,,,,,,,,,,,,,,,,,,,,,,,,,,,,,,,,,,,,,,,,,,,,,SoundMST/Slurp.wav,NEW,NA,,,snoring,6.892,0,12,12,31,1
,,,,,,,,,,,,,,,,3,2021-08-26_09h55.12.332,Session1,2020.2.10,Win32,60,,,,,,,,,,,,,,,,,,,,,,,,,,,,,,,,,,,,,,,,,,,,,,,,,,,,,,,,,,,,,,,SoundMST/Sleighbells_B.wav,NEW,NA,,,bells,3.804,0,13,13,25,1
,,,,,,,,,,,,,,,,3,2021-08-26_09h55.12.332,Session1,2020.2.10,Win32,60,,,,,,,,,,,,,,,,,,,,,,,,,,,,,,,,,,,,,,,,,,,,,,,,,,,,,,,,,,,,,,,SoundMST/Cello.wav,NEW,NA,,,cello,8.075,0,14,14,8,1
,,,,,,,,,,,,,,,,3,2021-08-26_09h55.12.332,Session1,2020.2.10,Win32,60,,,,,,,,,,,,,,,,,,,,,,,,,,,,,,,,,,,,,,,,,,,,,,,,,,,,,,,,,,,,,,,SoundMST/Duck_A.wav,SIMILAR,NA,,,duck,3.388,0,15,15,69,1
,,,,,,,,,,,,,,,,3,2021-08-26_09h55.12.332,Session1,2020.2.10,Win32,60,,,,,,,,,,,,,,,,,,,,,,,,,,,,,,,,,,,,,,,,,,,,,,,,,,,,,,,,,,,,,,,SoundMST/Guitar_B.wav,NEW,NA,,,guitar,3.26,0,16,16,24,1
,,,,,,,,,,,,,,,,3,2021-08-26_09h55.12.332,Session1,2020.2.10,Win32,60,,,,,,,,,,,,,,,,,,,,,,,,,,,,,,,,,,,,,,,,,,,,,,,,,,,,,,,,,,,,,,,SoundMST/Donkey.wav,NEW,NA,,,donkey,3.904,0,17,17,30,1
,,,,,,,,,,,,,,,,3,2021-08-26_09h55.12.332,Session1,2020.2.10,Win32,60,,,,,,,,,,,,,,,,,,,,,,,,,,,,,,,,,,,,,,,,,,,,,,,,,,,,,,,,,,,,,,,SoundMST/Chomp_A.wav,NEW,NA,,,eating,4.291,0,18,18,57,1
,,,,,,,,,,,,,,,,3,2021-08-26_09h55.12.332,Session1,2020.2.10,Win32,60,,,,,,,,,,,,,,,,,,,,,,,,,,,,,,,,,,,,,,,,,,,,,,,,,,,,,,,,,,,,,,,SoundMST/Piano_D.wav,NEW,NA,,,piano,4.086,0,19,19,7,1
,,,,,,,,,,,,,,,,3,2021-08-26_09h55.12.332,Session1,2020.2.10,Win32,60,,,,,,,,,,,,,,,,,,,,,,,,,,,,,,,,,,,,,,,,,,,,,,,,,,,,,,,,,,,,,,,SoundMST/Chime_D.wav,NEW,NA,,,bells,4.388,0,20,20,20,1
,,,,,,,,,,,,,,,,3,2021-08-26_09h55.12.332,Session1,2020.2.10,Win32,60,,,,,,,,,,,,,,,,,,,,,,,,,,,,,,,,,,,,,,,,,,,,,,,,,,,,,,,,,,,,,,,SoundMST/Goat_C.wav,NEW,NA,,,sheep,3.304,0,21,21,12,1
,,,,,,,,,,,,,,,,3,2021-08-26_09h55.12.332,Session1,2020.2.10,Win32,60,,,,,,,,,,,,,,,,,,,,,,,,,,,,,,,,,,,,,,,,,,,,,,,,,,,,,,,,,,,,,,,SoundMST/Writing_C.wav,SIMILAR,NA,,,writing chalk on blackboard,5.675,0,22,22,64,1
,,,,,,,,,,,,,,,,3,2021-08-26_09h55.12.332,Session1,2020.2.10,Win32,60,,,,,,,,,,,,,,,,,,,,,,,,,,,,,,,,,,,,,,,,,,,,,,,,,,,,,,,,,,,,,,,SoundMST/Whistle_B.wav,NEW,NA,,,police whistle,4.339,0,23,23,51,1
,,,,,,,,,,,,,,,,3,2021-08-26_09h55.12.332,Session1,2020.2.10,Win32,60,,,,,,,,,,,,,,,,,,,,,,,,,,,,,,,,,,,,,,,,,,,,,,,,,,,,,,,,,,,,,,,SoundMST/Faucet_A.wav,NEW,NA,,,turning on tap,5.587,0,24,24,21,1
,,,,,,,,,,,,,,,,3,2021-08-26_09h55.12.332,Session1,2020.2.10,Win32,60,,,,,,,,,,,,,,,,,,,,,,,,,,,,,,,,,,,,,,,,,,,,,,,,,,,,,,,,,,,,,,,SoundMST/Bird_A.wav,SIMILAR,NA,,,bird,4.02,0,25,25,75,1
,,,,,,,,,,,,,,,,3,2021-08-26_09h55.12.332,Session1,2020.2.10,Win32,60,,,,,,,,,,,,,,,,,,,,,,,,,,,,,,,,,,,,,,,,,,,,,,,,,,,,,,,,,,,,,,,SoundMST/Pour_C.wav,SIMILAR,NA,,,pouring water,4.618,0,26,26,79,1
,,,,,,,,,,,,,,,,3,2021-08-26_09h55.12.332,Session1,2020.2.10,Win32,60,,,,,,,,,,,,,,,,,,,,,,,,,,,,,,,,,,,,,,,,,,,,,,,,,,,,,,,,,,,,,,,SoundMST/Faucet_C.wav,SIMILAR,NA,,,rain,4.018,0,27,27,73,1
,,,,,,,,,,,,,,,,3,2021-08-26_09h55.12.332,Session1,2020.2.10,Win32,60,,,,,,,,,,,,,,,,,,,,,,,,,,,,,,,,,,,,,,,,,,,,,,,,,,,,,,,,,,,,,,,SoundMST/Elephant_A.wav,SIMILAR,NA,,,elephant,3.677,0,28,28,68,1
,,,,,,,,,,,,,,,,3,2021-08-26_09h55.12.332,Session1,2020.2.10,Win32,60,,,,,,,,,,,,,,,,,,,,,,,,,,,,,,,,,,,,,,,,,,,,,,,,,,,,,,,,,,,,,,,SoundMST/Airhorn.wav,NEW,NA,,,gollie buzzer,7.328,0,29,29,27,1
,,,,,,,,,,,,,,,,3,2021-08-26_09h55.12.332,Session1,2020.2.10,Win32,60,,,,,,,,,,,,,,,,,,,,,,,,,,,,,,,,,,,,,,,,,,,,,,,,,,,,,,,,,,,,,,,SoundMST/Bird_C.wav,NEW,NA,,,bird,3.69,0,30,30,22,1
,,,,,,,,,,,,,,,,3,2021-08-26_09h55.12.332,Session1,2020.2.10,Win32,60,,,,,,,,,,,,,,,,,,,,,,,,,,,,,,,,,,,,,,,,,,,,,,,,,,,,,,,,,,,,,,,SoundMST/Baby_B.wav,SIMILAR,NA,,,baby,3.569,0,31,31,74,1
,,,,,,,,,,,,,,,,3,2021-08-26_09h55.12.332,Session1,2020.2.10,Win32,60,,,,,,,,,,,,,,,,,,,,,,,,,,,,,,,,,,,,,,,,,,,,,,,,,,,,,,,,,,,,,,,SoundMST/Wind_B.wav,NEW,NA,,,wind,4.026,0,32,32,50,1
,,,,,,,,,,,,,,,,3,2021-08-26_09h55.12.332,Session1,2020.2.10,Win32,60,,,,,,,,,,,,,,,,,,,,,,,,,,,,,,,,,,,,,,,,,,,,,,,,,,,,,,,,,,,,,,,SoundMST/DialTone.wav,NEW,NA,,,telephone,3.477,0,33,33,46,1
,,,,,,,,,,,,,,,,3,2021-08-26_09h55.12.332,Session1,2020.2.10,Win32,60,,,,,,,,,,,,,,,,,,,,,,,,,,,,,,,,,,,,,,,,,,,,,,,,,,,,,,,,,,,,,,,SoundMST/Cuckoo_A.wav,NEW,NA,,,cuckoo clock,3.808,0,34,34,10,1
,,,,,,,,,,,,,,,,3,2021-08-26_09h55.12.332,Session1,2020.2.10,Win32,60,,,,,,,,,,,,,,,,,,,,,,,,,,,,,,,,,,,,,,,,,,,,,,,,,,,,,,,,,,,,,,,SoundMST/Coin_D.wav,NEW,NA,,,counting money,5.423,0,35,35,61,1
,,,,,,,,,,,,,,,,3,2021-08-26_09h55.12.332,Session1,2020.2.10,Win32,60,,,,,,,,,,,,,,,,,,,,,,,,,,,,,,,,,,,,,,,,,,,,,,,,,,,,,,,,,,,,,,,SoundMST/ManWhistle.wav,NEW,NA,,,whistling,3.908,0,36,36,60,1
,,,,,,,,,,,,,,,,3,2021-08-26_09h55.12.332,Session1,2020.2.10,Win32,60,,,,,,,,,,,,,,,,,,,,,,,,,,,,,,,,,,,,,,,,,,,,,,,,,,,,,,,,,,,,,,,SoundMST/Duck_B.wav,NEW,NA,,,duck,3.985,0,37,37,13,1
,,,,,,,,,,,,,,,,3,2021-08-26_09h55.12.332,Session1,2020.2.10,Win32,60,,,,,,,,,,,,,,,,,,,,,,,,,,,,,,,,,,,,,,,,,,,,,,,,,,,,,,,,,,,,,,,SoundMST/Thunder_A.wav,NEW,NA,,,thunderstorm,4.685,0,38,38,39,1
,,,,,,,,,,,,,,,,3,2021-08-26_09h55.12.332,Session1,2020.2.10,Win32,60,,,,,,,,,,,,,,,,,,,,,,,,,,,,,,,,,,,,,,,,,,,,,,,,,,,,,,,,,,,,,,,SoundMST/Cow.wav,NEW,NA,,,cow,3.453,0,39,39,44,1
,,,,,,,,,,,,,,,,3,2021-08-26_09h55.12.332,Session1,2020.2.10,Win32,60,,,,,,,,,,,,,,,,,,,,,,,,,,,,,,,,,,,,,,,,,,,,,,,,,,,,,,,,,,,,,,,SoundMST/Toilet_B.wav,NEW,NA,,,flushing toilet,4.697,0,40,40,40,1
,,,,,,,,,,,,,,,,3,2021-08-26_09h55.12.332,Session1,2020.2.10,Win32,60,,,,,,,,,,,,,,,,,,,,,,,,,,,,,,,,,,,,,,,,,,,,,,,,,,,,,,,,,,,,,,,SoundMST/Coin_E.wav,SIMILAR,NA,,,counting change,6.77,0,41,41,86,1
,,,,,,,,,,,,,,,,3,2021-08-26_09h55.12.332,Session1,2020.2.10,Win32,60,,,,,,,,,,,,,,,,,,,,,,,,,,,,,,,,,,,,,,,,,,,,,,,,,,,,,,,,,,,,,,,SoundMST/Laugh_A.wav,NEW,NA,,,laughter,5.006,0,42,42,28,1
,,,,,,,,,,,,,,,,3,2021-08-26_09h55.12.332,Session1,2020.2.10,Win32,60,,,,,,,,,,,,,,,,,,,,,,,,,,,,,,,,,,,,,,,,,,,,,,,,,,,,,,,,,,,,,,,SoundMST/Steam.wav,NEW,NA,,,train whislte,3.708,0,43,43,9,1
,,,,,,,,,,,,,,,,3,2021-08-26_09h55.12.332,Session1,2020.2.10,Win32,60,,,,,,,,,,,,,,,,,,,,,,,,,,,,,,,,,,,,,,,,,,,,,,,,,,,,,,,,,,,,,,,SoundMST/PaperRip.wav,NEW,NA,,,paper ripping,4.235,0,44,44,56,1
,,,,,,,,,,,,,,,,3,2021-08-26_09h55.12.332,Session1,2020.2.10,Win32,60,,,,,,,,,,,,,,,,,,,,,,,,,,,,,,,,,,,,,,,,,,,,,,,,,,,,,,,,,,,,,,,SoundMST/Clap_D.wav,SIMILAR,NA,,,clapping,8.803,0,45,45,81,1
,,,,,,,,,,,,,,,,3,2021-08-26_09h55.12.332,Session1,2020.2.10,Win32,60,,,,,,,,,,,,,,,,,,,,,,,,,,,,,,,,,,,,,,,,,,,,,,,,,,,,,,,,,,,,,,,SoundMST/Helicopter_A.wav,NEW,NA,,,helicopter,3.427,0,46,46,62,1
,,,,,,,,,,,,,,,,3,2021-08-26_09h55.12.332,Session1,2020.2.10,Win32,60,,,,,,,,,,,,,,,,,,,,,,,,,,,,,,,,,,,,,,,,,,,,,,,,,,,,,,,,,,,,,,,SoundMST/Heartbeat.wav,NEW,NA,,,heartbeat,4.134,0,47,47,6,1
,,,,,,,,,,,,,,,,3,2021-08-26_09h55.12.332,Session1,2020.2.10,Win32,60,,,,,,,,,,,,,,,,,,,,,,,,,,,,,,,,,,,,,,,,,,,,,,,,,,,,,,,,,,,,,,,SoundMST/Bagpipe.wav,NEW,NA,,,bagpipes,4.169,0,48,48,53,1
,,,,,,,,,,,,,,,,3,2021-08-26_09h55.12.332,Session1,2020.2.10,Win32,60,,,,,,,,,,,,,,,,,,,,,,,,,,,,,,,,,,,,,,,,,,,,,,,,,,,,,,,,,,,,,,,SoundMST/Printer.wav,NEW,NA,,,camera,10.167,0,49,49,34,1
,,,,,,,,,,,,,,,,3,2021-08-26_09h55.12.332,Session1,2020.2.10,Win32,60,,,,,,,,,,,,,,,,,,,,,,,,,,,,,,,,,,,,,,,,,,,,,,,,,,,,,,,,,,,,,,,SoundMST/Camera.wav,NEW,NA,,,camera,3.195,0,50,50,14,1
,,,,,,,,,,,,,,,,3,2021-08-26_09h55.12.332,Session1,2020.2.10,Win32,60,,,,,,,,,,,,,,,,,,,,,,,,,,,,,,,,,,,,,,,,,,,,,,,,,,,,,,,,,,,,,,,SoundMST/Trumpet_B.wav,NEW,NA,,,bugle,4.391,0,51,51,5,1
,,,,,,,,,,,,,,,,3,2021-08-26_09h55.12.332,Session1,2020.2.10,Win32,60,,,,,,,,,,,,,,,,,,,,,,,,,,,,,,,,,,,,,,,,,,,,,,,,,,,,,,,,,,,,,,,SoundMST/CarStart_E.wav,NEW,NA,,,starting car,4.418,0,52,52,2,1
,,,,,,,,,,,,,,,,3,2021-08-26_09h55.12.332,Session1,2020.2.10,Win32,60,,,,,,,,,,,,,,,,,,,,,,,,,,,,,,,,,,,,,,,,,,,,,,,,,,,,,,,,,,,,,,,SoundMST/Typing.wav,NEW,NA,,,typing,4.47,0,53,53,47,1
,,,,,,,,,,,,,,,,3,2021-08-26_09h55.12.332,Session1,2020.2.10,Win32,60,,,,,,,,,,,,,,,,,,,,,,,,,,,,,,,,,,,,,,,,,,,,,,,,,,,,,,,,,,,,,,,SoundMST/Crow_A.wav,NEW,NA,,,crow,3.41,0,54,54,58,1
,,,,,,,,,,,,,,,,3,2021-08-26_09h55.12.332,Session1,2020.2.10,Win32,60,,,,,,,,,,,,,,,,,,,,,,,,,,,,,,,,,,,,,,,,,,,,,,,,,,,,,,,,,,,,,,,SoundMST/Chomp_C.wav,SIMILAR,NA,,,eating,4.803,0,55,55,84,1
,,,,,,,,,,,,,,,,3,2021-08-26_09h55.12.332,Session1,2020.2.10,Win32,60,,,,,,,,,,,,,,,,,,,,,,,,,,,,,,,,,,,,,,,,,,,,,,,,,,,,,,,,,,,,,,,SoundMST/Piano_C.wav,SIMILAR,NA,,,piano,4.325,0,56,56,67,1
,,,,,,,,,,,,,,,,3,2021-08-26_09h55.12.332,Session1,2020.2.10,Win32,60,,,,,,,,,,,,,,,,,,,,,,,,,,,,,,,,,,,,,,,,,,,,,,,,,,,,,,,,,,,,,,,SoundMST/Pour_F.wav,NEW,NA,,,pouring water,5.34,0,57,57,37,1
,,,,,,,,,,,,,,,,3,2021-08-26_09h55.12.332,Session1,2020.2.10,Win32,60,,,,,,,,,,,,,,,,,,,,,,,,,,,,,,,,,,,,,,,,,,,,,,,,,,,,,,,,,,,,,,,SoundMST/HairDryer_A.wav,NEW,NA,,,vacume,4.417,0,58,58,38,1
,,,,,,,,,,,,,,,,3,2021-08-26_09h55.12.332,Session1,2020.2.10,Win32,60,,,,,,,,,,,,,,,,,,,,,,,,,,,,,,,,,,,,,,,,,,,,,,,,,,,,,,,,,,,,,,,SoundMST/Clap_A.wav,NEW,NA,,,clapping,4.202,0,59,59,48,1
,,,,,,,,,,,,,,,,3,2021-08-26_09h55.12.332,Session1,2020.2.10,Win32,60,,,,,,,,,,,,,,,,,,,,,,,,,,,,,,,,,,,,,,,,,,,,,,,,,,,,,,,,,,,,,,,SoundMST/Bubbles_B.wav,SIMILAR,NA,,,bubbles,4.558,0,60,60,87,1
,,,,,,,,,,,,,,,,3,2021-08-26_09h55.12.332,Session1,2020.2.10,Win32,60,,,,,,,,,,,,,,,,,,,,,,,,,,,,,,,,,,,,,,,,,,,,,,,,,,,,,,,,,,,,,,,SoundMST/Fireworks.wav,NEW,NA,,,flock of birds,7.605,0,61,61,52,1
,,,,,,,,,,,,,,,,3,2021-08-26_09h55.12.332,Session1,2020.2.10,Win32,60,,,,,,,,,,,,,,,,,,,,,,,,,,,,,,,,,,,,,,,,,,,,,,,,,,,,,,,,,,,,,,,SoundMST/Howl.wav,NEW,NA,,,coyote,5.241,0,62,62,33,1
,,,,,,,,,,,,,,,,3,2021-08-26_09h55.12.332,Session1,2020.2.10,Win32,60,,,,,,,,,,,,,,,,,,,,,,,,,,,,,,,,,,,,,,,,,,,,,,,,,,,,,,,,,,,,,,,SoundMST/Puff_A.wav,NEW,NA,,,squeeky toy,4.617,0,63,63,4,1
,,,,,,,,,,,,,,,,3,2021-08-26_09h55.12.332,Session1,2020.2.10,Win32,60,,,,,,,,,,,,,,,,,,,,,,,,,,,,,,,,,,,,,,,,,,,,,,,,,,,,,,,,,,,,,,,SoundMST/Footsteps_F.wav,SIMILAR,NA,,,going upstaris,7.19,0,64,64,80,1
,,,,,,,,,,,,,,,,3,2021-08-26_09h55.12.332,Session1,2020.2.10,Win32,60,,,,,,,,,,,,,,,,,,,,,,,,,,,,,,,,,,,,,,,,,,,,,,,,,,,,,,,,,,,,,,,SoundMST/Sneeze_B.wav,NEW,NA,,,sneeze,3.474,0,65,65,43,1
,,,,,,,,,,,,,,,,3,2021-08-26_09h55.12.332,Session1,2020.2.10,Win32,60,,,,,,,,,,,,,,,,,,,,,,,,,,,,,,,,,,,,,,,,,,,,,,,,,,,,,,,,,,,,,,,SoundMST/Bowlingpins.wav,NEW,NA,,,things falling over,14.732,0,66,66,59,1
,,,,,,,,,,,,,,,,3,2021-08-26_09h55.12.332,Session1,2020.2.10,Win32,60,,,,,,,,,,,,,,,,,,,,,,,,,,,,,,,,,,,,,,,,,,,,,,,,,,,,,,,,,,,,,,,SoundMST/Droplet_B.wav,NEW,NA,,,drop of water,4.984,0,67,67,49,1
,,,,,,,,,,,,,,,,3,2021-08-26_09h55.12.332,Session1,2020.2.10,Win32,60,,,,,,,,,,,,,,,,,,,,,,,,,,,,,,,,,,,,,,,,,,,,,,,,,,,,,,,,,,,,,,,SoundMST/Elephant_C.wav,NEW,NA,,,elephant,3.888,0,68,68,3,1
,,,,,,,,,,,,,,,,3,2021-08-26_09h55.12.332,Session1,2020.2.10,Win32,60,,,,,,,,,,,,,,,,,,,,,,,,,,,,,,,,,,,,,,,,,,,,,,,,,,,,,,,,,,,,,,,SoundMST/Mosquito_B.wav,NEW,NA,,,bee,3.542,0,69,69,17,1
,,,,,,,,,,,,,,,,3,2021-08-26_09h55.12.332,Session1,2020.2.10,Win32,60,,,,,,,,,,,,,,,,,,,,,,,,,,,,,,,,,,,,,,,,,,,,,,,,,,,,,,,,,,,,,,,SoundMST/CarStart_D.wav,SIMILAR,NA,,,starting car,4.639,0,70,70,65,1
,,,,,,,,,,,,,,,,3,2021-08-26_09h55.12.332,Session1,2020.2.10,Win32,60,,,,,,,,,,,,,,,,,,,,,,,,,,,,,,,,,,,,,,,,,,,,,,,,,,,,,,,,,,,,,,,SoundMST/Chicken_A.wav,NEW,NA,,,chicken,3.237,0,71,71,11,1
,,,,,,,,,,,,,,,,3,2021-08-26_09h55.12.332,Session1,2020.2.10,Win32,60,,,,,,,,,,,,,,,,,,,,,,,,,,,,,,,,,,,,,,,,,,,,,,,,,,,,,,,,,,,,,,,SoundMST/Trumpet_C.wav,SIMILAR,NA,,,horn,3.892,0,72,72,66,1
,,,,,,,,,,,,,,,,3,2021-08-26_09h55.12.332,Session1,2020.2.10,Win32,60,,,,,,,,,,,,,,,,,,,,,,,,,,,,,,,,,,,,,,,,,,,,,,,,,,,,,,,,,,,,,,,SoundMST/Siren_E.wav,NEW,NA,,,police car,4.475,0,73,73,54,1
,,,,,,,,,,,,,,,,3,2021-08-26_09h55.12.332,Session1,2020.2.10,Win32,60,,,,,,,,,,,,,,,,,,,,,,,,,,,,,,,,,,,,,,,,,,,,,,,,,,,,,,,,,,,,,,,SoundMST/ManWhistle_E.wav,SIMILAR,NA,,,whistle,3.126,0,74,74,85,1
,,,,,,,,,,,,,,,,3,2021-08-26_09h55.12.332,Session1,2020.2.10,Win32,60,,,,,,,,,,,,,,,,,,,,,,,,,,,,,,,,,,,,,,,,,,,,,,,,,,,,,,,,,,,,,,,SoundMST/Phone_E.wav,SIMILAR,NA,,,telephone,3.808,0,75,75,70,1
,,,,,,,,,,,,,,,,3,2021-08-26_09h55.12.332,Session1,2020.2.10,Win32,60,,,,,,,,,,,,,,,,,,,,,,,,,,,,,,,,,,,,,,,,,,,,,,,,,,,,,,,,,,,,,,,SoundMST/Buzz.wav,NEW,NA,,,telephone,5.891,0,76,76,0,1
,,,,,,,,,,,,,,,,3,2021-08-26_09h55.12.332,Session1,2020.2.10,Win32,60,,,,,,,,,,,,,,,,,,,,,,,,,,,,,,,,,,,,,,,,,,,,,,,,,,,,,,,,,,,,,,,SoundMST/Cough_I.wav,NEW,NA,,,coughing,3.586,0,77,77,18,1
,,,,,,,,,,,,,,,,3,2021-08-26_09h55.12.332,Session1,2020.2.10,Win32,60,,,,,,,,,,,,,,,,,,,,,,,,,,,,,,,,,,,,,,,,,,,,,,,,,,,,,,,,,,,,,,,SoundMST/Writing_A.wav,NEW,NA,,,chalk on blackboard,5.019,0,78,78,1,1
,,,,,,,,,,,,,,,,3,2021-08-26_09h55.12.332,Session1,2020.2.10,Win32,60,,,,,,,,,,,,,,,,,,,,,,,,,,,,,,,,,,,,,,,,,,,,,,,,,,,,,,,,,,,,,,,SoundMST/Baby_C.wav,NEW,NA,,,baby,3.485,0,79,79,19,1
,,,,,,,,,,,,,,,,3,2021-08-26_09h55.12.332,Session1,2020.2.10,Win32,60,,,,,,,,,,,,,,,,,,,,,,,,,,,,,,,,,,,,,,,,,,,,,,,,,,,,,,,,,,,,,,,SoundMST/Whistle_C.wav,SIMILAR,NA,,,whistle,2.869,0,80,80,82,1
,,,,,,,,,,,,,,,,3,2021-08-26_09h55.12.332,Session1,2020.2.10,Win32,60,,,,,,,,,,,,,,,,,,,,,,,,,,,,,,,,,,,,,,,,,,,,,,,,,,,,,,,,,,,,,,,SoundMST/Dog_H.wav,NEW,NA,,,dog,2.718,0,81,81,29,1
,,,,,,,,,,,,,,,,3,2021-08-26_09h55.12.332,Session1,2020.2.10,Win32,60,,,,,,,,,,,,,,,,,,,,,,,,,,,,,,,,,,,,,,,,,,,,,,,,,,,,,,,,,,,,,,,SoundMST/Footsteps_C.wav,NEW,NA,,,going upstaris,5.134,0,82,82,41,1
,,,,,,,,,,,,,,,,3,2021-08-26_09h55.12.332,Session1,2020.2.10,Win32,60,,,,,,,,,,,,,,,,,,,,,,,,,,,,,,,,,,,,,,,,,,,,,,,,,,,,,,,,,,,,,,,SoundMST/Bullfrog.wav,NEW,NA,,,frog,3.589,0,83,83,23,1
,,,,,,,,,,,,,,,,3,2021-08-26_09h55.12.332,Session1,2020.2.10,Win32,60,,,,,,,,,,,,,,,,,,,,,,,,,,,,,,,,,,,,,,,,,,,,,,,,,,,,,,,,,,,,,,,SoundMST/Siren_A.wav,SIMILAR,NA,,,siren,4.46,0,84,84,83,1
,,,,,,,,,,,,,,,,3,2021-08-26_09h55.12.332,Session1,2020.2.10,Win32,60,,,,,,,,,,,,,,,,,,,,,,,,,,,,,,,,,,,,,,,,,,,,,,,,,,,,,,,,,,,,,,,SoundMST/Laugh_D.wav,SIMILAR,NA,,,laughter,4.239,0,85,85,78,1
,,,,,,,,,,,,,,,,3,2021-08-26_09h55.12.332,Session1,2020.2.10,Win32,60,,,,,,,,,,,,,,,,,,,,,,,,,,,,,,,,,,,,,,,,,,,,,,,,,,,,,,,,,,,,,,,SoundMST/IceDrop.wav,NEW,NA,,,ice in glass,5.035,0,86,86,55,1
,,,,,,,,,,,,,,,,3,2021-08-26_09h55.12.332,Session1,2020.2.10,Win32,60,,,,,,,,,,,,,,,,,,,,,,,,,,,,,,,,,,,,,,,,,,,,,,,,,,,,,,,,,,,,,,,SoundMST/Cough_J.wav,SIMILAR,NA,,,coughing,3.692,0,87,87,76,1
=======
,,,,,,,,,,,,,,,,3,2021-08-26_09h55.12.332,Session1,2020.2.10,Win32,60,,,,,,,,,,,,,,,,,,,,,space,7.201,,,,,,,,,,,,,,,,,,,,,,,,,,,,,,,,,,,,,,,,,SoundMST/Hammer_A.wav,NEW,NA,space,18.835,space,5.663,0,0,0,32,1
,,,,,,,,,,,,,,,,3,2021-08-26_09h55.12.332,Session1,2020.2.10,Win32,60,,,,,,,,,,,,,,,,,,,,,,,,,,,,,,,,,,,,,,,,,,,,,,,,,,,,,,,,,,,,,,,SoundMST/Snore_E.wav,SIMILAR,NA,,,space,6.336,0,1,1,71,1
,,,,,,,,,,,,,,,,3,2021-08-26_09h55.12.332,Session1,2020.2.10,Win32,60,,,,,,,,,,,,,,,,,,,,,,,,,,,,,,,,,,,,,,,,,,,,,,,,,,,,,,,,,,,,,,,SoundMST/Airplane_B.wav,NEW,NA,,,space,4.074,0,2,2,36,1
,,,,,,,,,,,,,,,,3,2021-08-26_09h55.12.332,Session1,2020.2.10,Win32,60,,,,,,,,,,,,,,,,,,,,,,,,,,,,,,,,,,,,,,,,,,,,,,,,,,,,,,,,,,,,,,,SoundMST/Phone_F.wav,NEW,NA,,,space,3.77,0,3,3,15,1
,,,,,,,,,,,,,,,,3,2021-08-26_09h55.12.332,Session1,2020.2.10,Win32,60,,,,,,,,,,,,,,,,,,,,,,,,,,,,,,,,,,,,,,,,,,,,,,,,,,,,,,,,,,,,,,,SoundMST/Snore_C.wav,NEW,NA,,,space,6.008,0,4,4,16,1
,,,,,,,,,,,,,,,,3,2021-08-26_09h55.12.332,Session1,2020.2.10,Win32,60,,,,,,,,,,,,,,,,,,,,,,,,,,,,,,,,,,,,,,,,,,,,,,,,,,,,,,,,,,,,,,,SoundMST/Dog_I.wav,SIMILAR,NA,,,space,3.639,0,5,5,77,1
,,,,,,,,,,,,,,,,3,2021-08-26_09h55.12.332,Session1,2020.2.10,Win32,60,,,,,,,,,,,,,,,,,,,,,,,,,,,,,,,,,,,,,,,,,,,,,,,,,,,,,,,,,,,,,,,SoundMST/Horse.wav,NEW,NA,,,space,3.362,0,6,6,35,1
,,,,,,,,,,,,,,,,3,2021-08-26_09h55.12.332,Session1,2020.2.10,Win32,60,,,,,,,,,,,,,,,,,,,,,,,,,,,,,,,,,,,,,,,,,,,,,,,,,,,,,,,,,,,,,,,SoundMST/Bubbles_A.wav,NEW,NA,,,space,4.49,0,7,7,63,1
,,,,,,,,,,,,,,,,3,2021-08-26_09h55.12.332,Session1,2020.2.10,Win32,60,,,,,,,,,,,,,,,,,,,,,,,,,,,,,,,,,,,,,,,,,,,,,,,,,,,,,,,,,,,,,,,SoundMST/Growl_H.wav,NEW,NA,,,space,5.352,0,8,8,45,1
,,,,,,,,,,,,,,,,3,2021-08-26_09h55.12.332,Session1,2020.2.10,Win32,60,,,,,,,,,,,,,,,,,,,,,,,,,,,,,,,,,,,,,,,,,,,,,,,,,,,,,,,,,,,,,,,SoundMST/Chime_A.wav,SIMILAR,NA,,,space,4.019,0,9,9,72,1
,,,,,,,,,,,,,,,,3,2021-08-26_09h55.12.332,Session1,2020.2.10,Win32,60,,,,,,,,,,,,,,,,,,,,,,,,,,,,,,,,,,,,,,,,,,,,,,,,,,,,,,,,,,,,,,,SoundMST/Cup.wav,NEW,NA,,,space,6.855,0,10,10,42,1
,,,,,,,,,,,,,,,,3,2021-08-26_09h55.12.332,Session1,2020.2.10,Win32,60,,,,,,,,,,,,,,,,,,,,,,,,,,,,,,,,,,,,,,,,,,,,,,,,,,,,,,,,,,,,,,,SoundMST/Cat_A.wav,NEW,NA,,,space,4.17,0,11,11,26,1
,,,,,,,,,,,,,,,,3,2021-08-26_09h55.12.332,Session1,2020.2.10,Win32,60,,,,,,,,,,,,,,,,,,,,,,,,,,,,,,,,,,,,,,,,,,,,,,,,,,,,,,,,,,,,,,,SoundMST/Slurp.wav,NEW,NA,,,space,6.892,0,12,12,31,1
,,,,,,,,,,,,,,,,3,2021-08-26_09h55.12.332,Session1,2020.2.10,Win32,60,,,,,,,,,,,,,,,,,,,,,,,,,,,,,,,,,,,,,,,,,,,,,,,,,,,,,,,,,,,,,,,SoundMST/Sleighbells_B.wav,NEW,NA,,,space,3.804,0,13,13,25,1
,,,,,,,,,,,,,,,,3,2021-08-26_09h55.12.332,Session1,2020.2.10,Win32,60,,,,,,,,,,,,,,,,,,,,,,,,,,,,,,,,,,,,,,,,,,,,,,,,,,,,,,,,,,,,,,,SoundMST/Cello.wav,NEW,NA,,,space,8.075,0,14,14,8,1
,,,,,,,,,,,,,,,,3,2021-08-26_09h55.12.332,Session1,2020.2.10,Win32,60,,,,,,,,,,,,,,,,,,,,,,,,,,,,,,,,,,,,,,,,,,,,,,,,,,,,,,,,,,,,,,,SoundMST/Duck_A.wav,SIMILAR,NA,,,space,3.388,0,15,15,69,1
,,,,,,,,,,,,,,,,3,2021-08-26_09h55.12.332,Session1,2020.2.10,Win32,60,,,,,,,,,,,,,,,,,,,,,,,,,,,,,,,,,,,,,,,,,,,,,,,,,,,,,,,,,,,,,,,SoundMST/Guitar_B.wav,NEW,NA,,,space,3.26,0,16,16,24,1
,,,,,,,,,,,,,,,,3,2021-08-26_09h55.12.332,Session1,2020.2.10,Win32,60,,,,,,,,,,,,,,,,,,,,,,,,,,,,,,,,,,,,,,,,,,,,,,,,,,,,,,,,,,,,,,,SoundMST/Donkey.wav,NEW,NA,,,space,3.904,0,17,17,30,1
,,,,,,,,,,,,,,,,3,2021-08-26_09h55.12.332,Session1,2020.2.10,Win32,60,,,,,,,,,,,,,,,,,,,,,,,,,,,,,,,,,,,,,,,,,,,,,,,,,,,,,,,,,,,,,,,SoundMST/Chomp_A.wav,NEW,NA,,,space,4.291,0,18,18,57,1
,,,,,,,,,,,,,,,,3,2021-08-26_09h55.12.332,Session1,2020.2.10,Win32,60,,,,,,,,,,,,,,,,,,,,,,,,,,,,,,,,,,,,,,,,,,,,,,,,,,,,,,,,,,,,,,,SoundMST/Piano_D.wav,NEW,NA,,,space,4.086,0,19,19,7,1
,,,,,,,,,,,,,,,,3,2021-08-26_09h55.12.332,Session1,2020.2.10,Win32,60,,,,,,,,,,,,,,,,,,,,,,,,,,,,,,,,,,,,,,,,,,,,,,,,,,,,,,,,,,,,,,,SoundMST/Chime_D.wav,NEW,NA,,,space,4.388,0,20,20,20,1
,,,,,,,,,,,,,,,,3,2021-08-26_09h55.12.332,Session1,2020.2.10,Win32,60,,,,,,,,,,,,,,,,,,,,,,,,,,,,,,,,,,,,,,,,,,,,,,,,,,,,,,,,,,,,,,,SoundMST/Goat_C.wav,NEW,NA,,,space,3.304,0,21,21,12,1
,,,,,,,,,,,,,,,,3,2021-08-26_09h55.12.332,Session1,2020.2.10,Win32,60,,,,,,,,,,,,,,,,,,,,,,,,,,,,,,,,,,,,,,,,,,,,,,,,,,,,,,,,,,,,,,,SoundMST/Writing_C.wav,SIMILAR,NA,,,space,5.675,0,22,22,64,1
,,,,,,,,,,,,,,,,3,2021-08-26_09h55.12.332,Session1,2020.2.10,Win32,60,,,,,,,,,,,,,,,,,,,,,,,,,,,,,,,,,,,,,,,,,,,,,,,,,,,,,,,,,,,,,,,SoundMST/Whistle_B.wav,NEW,NA,,,space,4.339,0,23,23,51,1
,,,,,,,,,,,,,,,,3,2021-08-26_09h55.12.332,Session1,2020.2.10,Win32,60,,,,,,,,,,,,,,,,,,,,,,,,,,,,,,,,,,,,,,,,,,,,,,,,,,,,,,,,,,,,,,,SoundMST/Faucet_A.wav,NEW,NA,,,space,5.587,0,24,24,21,1
,,,,,,,,,,,,,,,,3,2021-08-26_09h55.12.332,Session1,2020.2.10,Win32,60,,,,,,,,,,,,,,,,,,,,,,,,,,,,,,,,,,,,,,,,,,,,,,,,,,,,,,,,,,,,,,,SoundMST/Bird_A.wav,SIMILAR,NA,,,space,4.02,0,25,25,75,1
,,,,,,,,,,,,,,,,3,2021-08-26_09h55.12.332,Session1,2020.2.10,Win32,60,,,,,,,,,,,,,,,,,,,,,,,,,,,,,,,,,,,,,,,,,,,,,,,,,,,,,,,,,,,,,,,SoundMST/Pour_C.wav,SIMILAR,NA,,,space,4.618,0,26,26,79,1
,,,,,,,,,,,,,,,,3,2021-08-26_09h55.12.332,Session1,2020.2.10,Win32,60,,,,,,,,,,,,,,,,,,,,,,,,,,,,,,,,,,,,,,,,,,,,,,,,,,,,,,,,,,,,,,,SoundMST/Faucet_C.wav,SIMILAR,NA,,,space,4.018,0,27,27,73,1
,,,,,,,,,,,,,,,,3,2021-08-26_09h55.12.332,Session1,2020.2.10,Win32,60,,,,,,,,,,,,,,,,,,,,,,,,,,,,,,,,,,,,,,,,,,,,,,,,,,,,,,,,,,,,,,,SoundMST/Elephant_A.wav,SIMILAR,NA,,,space,3.677,0,28,28,68,1
,,,,,,,,,,,,,,,,3,2021-08-26_09h55.12.332,Session1,2020.2.10,Win32,60,,,,,,,,,,,,,,,,,,,,,,,,,,,,,,,,,,,,,,,,,,,,,,,,,,,,,,,,,,,,,,,SoundMST/Airhorn.wav,NEW,NA,,,space,7.328,0,29,29,27,1
,,,,,,,,,,,,,,,,3,2021-08-26_09h55.12.332,Session1,2020.2.10,Win32,60,,,,,,,,,,,,,,,,,,,,,,,,,,,,,,,,,,,,,,,,,,,,,,,,,,,,,,,,,,,,,,,SoundMST/Bird_C.wav,NEW,NA,,,space,3.69,0,30,30,22,1
,,,,,,,,,,,,,,,,3,2021-08-26_09h55.12.332,Session1,2020.2.10,Win32,60,,,,,,,,,,,,,,,,,,,,,,,,,,,,,,,,,,,,,,,,,,,,,,,,,,,,,,,,,,,,,,,SoundMST/Baby_B.wav,SIMILAR,NA,,,space,3.569,0,31,31,74,1
,,,,,,,,,,,,,,,,3,2021-08-26_09h55.12.332,Session1,2020.2.10,Win32,60,,,,,,,,,,,,,,,,,,,,,,,,,,,,,,,,,,,,,,,,,,,,,,,,,,,,,,,,,,,,,,,SoundMST/Wind_B.wav,NEW,NA,,,space,4.026,0,32,32,50,1
,,,,,,,,,,,,,,,,3,2021-08-26_09h55.12.332,Session1,2020.2.10,Win32,60,,,,,,,,,,,,,,,,,,,,,,,,,,,,,,,,,,,,,,,,,,,,,,,,,,,,,,,,,,,,,,,SoundMST/DialTone.wav,NEW,NA,,,space,3.477,0,33,33,46,1
,,,,,,,,,,,,,,,,3,2021-08-26_09h55.12.332,Session1,2020.2.10,Win32,60,,,,,,,,,,,,,,,,,,,,,,,,,,,,,,,,,,,,,,,,,,,,,,,,,,,,,,,,,,,,,,,SoundMST/Cuckoo_A.wav,NEW,NA,,,space,3.808,0,34,34,10,1
,,,,,,,,,,,,,,,,3,2021-08-26_09h55.12.332,Session1,2020.2.10,Win32,60,,,,,,,,,,,,,,,,,,,,,,,,,,,,,,,,,,,,,,,,,,,,,,,,,,,,,,,,,,,,,,,SoundMST/Coin_D.wav,NEW,NA,,,space,5.423,0,35,35,61,1
,,,,,,,,,,,,,,,,3,2021-08-26_09h55.12.332,Session1,2020.2.10,Win32,60,,,,,,,,,,,,,,,,,,,,,,,,,,,,,,,,,,,,,,,,,,,,,,,,,,,,,,,,,,,,,,,SoundMST/ManWhistle.wav,NEW,NA,,,space,3.908,0,36,36,60,1
,,,,,,,,,,,,,,,,3,2021-08-26_09h55.12.332,Session1,2020.2.10,Win32,60,,,,,,,,,,,,,,,,,,,,,,,,,,,,,,,,,,,,,,,,,,,,,,,,,,,,,,,,,,,,,,,SoundMST/Duck_B.wav,NEW,NA,,,space,3.985,0,37,37,13,1
,,,,,,,,,,,,,,,,3,2021-08-26_09h55.12.332,Session1,2020.2.10,Win32,60,,,,,,,,,,,,,,,,,,,,,,,,,,,,,,,,,,,,,,,,,,,,,,,,,,,,,,,,,,,,,,,SoundMST/Thunder_A.wav,NEW,NA,,,space,4.685,0,38,38,39,1
,,,,,,,,,,,,,,,,3,2021-08-26_09h55.12.332,Session1,2020.2.10,Win32,60,,,,,,,,,,,,,,,,,,,,,,,,,,,,,,,,,,,,,,,,,,,,,,,,,,,,,,,,,,,,,,,SoundMST/Cow.wav,NEW,NA,,,space,3.453,0,39,39,44,1
,,,,,,,,,,,,,,,,3,2021-08-26_09h55.12.332,Session1,2020.2.10,Win32,60,,,,,,,,,,,,,,,,,,,,,,,,,,,,,,,,,,,,,,,,,,,,,,,,,,,,,,,,,,,,,,,SoundMST/Toilet_B.wav,NEW,NA,,,space,4.697,0,40,40,40,1
,,,,,,,,,,,,,,,,3,2021-08-26_09h55.12.332,Session1,2020.2.10,Win32,60,,,,,,,,,,,,,,,,,,,,,,,,,,,,,,,,,,,,,,,,,,,,,,,,,,,,,,,,,,,,,,,SoundMST/Coin_E.wav,SIMILAR,NA,,,space,6.77,0,41,41,86,1
,,,,,,,,,,,,,,,,3,2021-08-26_09h55.12.332,Session1,2020.2.10,Win32,60,,,,,,,,,,,,,,,,,,,,,,,,,,,,,,,,,,,,,,,,,,,,,,,,,,,,,,,,,,,,,,,SoundMST/Laugh_A.wav,NEW,NA,,,space,5.006,0,42,42,28,1
,,,,,,,,,,,,,,,,3,2021-08-26_09h55.12.332,Session1,2020.2.10,Win32,60,,,,,,,,,,,,,,,,,,,,,,,,,,,,,,,,,,,,,,,,,,,,,,,,,,,,,,,,,,,,,,,SoundMST/Steam.wav,NEW,NA,,,space,3.708,0,43,43,9,1
,,,,,,,,,,,,,,,,3,2021-08-26_09h55.12.332,Session1,2020.2.10,Win32,60,,,,,,,,,,,,,,,,,,,,,,,,,,,,,,,,,,,,,,,,,,,,,,,,,,,,,,,,,,,,,,,SoundMST/PaperRip.wav,NEW,NA,,,space,4.235,0,44,44,56,1
,,,,,,,,,,,,,,,,3,2021-08-26_09h55.12.332,Session1,2020.2.10,Win32,60,,,,,,,,,,,,,,,,,,,,,,,,,,,,,,,,,,,,,,,,,,,,,,,,,,,,,,,,,,,,,,,SoundMST/Clap_D.wav,SIMILAR,NA,,,space,8.803,0,45,45,81,1
,,,,,,,,,,,,,,,,3,2021-08-26_09h55.12.332,Session1,2020.2.10,Win32,60,,,,,,,,,,,,,,,,,,,,,,,,,,,,,,,,,,,,,,,,,,,,,,,,,,,,,,,,,,,,,,,SoundMST/Helicopter_A.wav,NEW,NA,,,space,3.427,0,46,46,62,1
,,,,,,,,,,,,,,,,3,2021-08-26_09h55.12.332,Session1,2020.2.10,Win32,60,,,,,,,,,,,,,,,,,,,,,,,,,,,,,,,,,,,,,,,,,,,,,,,,,,,,,,,,,,,,,,,SoundMST/Heartbeat.wav,NEW,NA,,,space,4.134,0,47,47,6,1
,,,,,,,,,,,,,,,,3,2021-08-26_09h55.12.332,Session1,2020.2.10,Win32,60,,,,,,,,,,,,,,,,,,,,,,,,,,,,,,,,,,,,,,,,,,,,,,,,,,,,,,,,,,,,,,,SoundMST/Bagpipe.wav,NEW,NA,,,space,4.169,0,48,48,53,1
,,,,,,,,,,,,,,,,3,2021-08-26_09h55.12.332,Session1,2020.2.10,Win32,60,,,,,,,,,,,,,,,,,,,,,,,,,,,,,,,,,,,,,,,,,,,,,,,,,,,,,,,,,,,,,,,SoundMST/Printer.wav,NEW,NA,,,space,10.167,0,49,49,34,1
,,,,,,,,,,,,,,,,3,2021-08-26_09h55.12.332,Session1,2020.2.10,Win32,60,,,,,,,,,,,,,,,,,,,,,,,,,,,,,,,,,,,,,,,,,,,,,,,,,,,,,,,,,,,,,,,SoundMST/Camera.wav,NEW,NA,,,space,3.195,0,50,50,14,1
,,,,,,,,,,,,,,,,3,2021-08-26_09h55.12.332,Session1,2020.2.10,Win32,60,,,,,,,,,,,,,,,,,,,,,,,,,,,,,,,,,,,,,,,,,,,,,,,,,,,,,,,,,,,,,,,SoundMST/Trumpet_B.wav,NEW,NA,,,space,4.391,0,51,51,5,1
,,,,,,,,,,,,,,,,3,2021-08-26_09h55.12.332,Session1,2020.2.10,Win32,60,,,,,,,,,,,,,,,,,,,,,,,,,,,,,,,,,,,,,,,,,,,,,,,,,,,,,,,,,,,,,,,SoundMST/CarStart_E.wav,NEW,NA,,,space,4.418,0,52,52,2,1
,,,,,,,,,,,,,,,,3,2021-08-26_09h55.12.332,Session1,2020.2.10,Win32,60,,,,,,,,,,,,,,,,,,,,,,,,,,,,,,,,,,,,,,,,,,,,,,,,,,,,,,,,,,,,,,,SoundMST/Typing.wav,NEW,NA,,,space,4.47,0,53,53,47,1
,,,,,,,,,,,,,,,,3,2021-08-26_09h55.12.332,Session1,2020.2.10,Win32,60,,,,,,,,,,,,,,,,,,,,,,,,,,,,,,,,,,,,,,,,,,,,,,,,,,,,,,,,,,,,,,,SoundMST/Crow_A.wav,NEW,NA,,,space,3.41,0,54,54,58,1
,,,,,,,,,,,,,,,,3,2021-08-26_09h55.12.332,Session1,2020.2.10,Win32,60,,,,,,,,,,,,,,,,,,,,,,,,,,,,,,,,,,,,,,,,,,,,,,,,,,,,,,,,,,,,,,,SoundMST/Chomp_C.wav,SIMILAR,NA,,,space,4.803,0,55,55,84,1
,,,,,,,,,,,,,,,,3,2021-08-26_09h55.12.332,Session1,2020.2.10,Win32,60,,,,,,,,,,,,,,,,,,,,,,,,,,,,,,,,,,,,,,,,,,,,,,,,,,,,,,,,,,,,,,,SoundMST/Piano_C.wav,SIMILAR,NA,,,space,4.325,0,56,56,67,1
,,,,,,,,,,,,,,,,3,2021-08-26_09h55.12.332,Session1,2020.2.10,Win32,60,,,,,,,,,,,,,,,,,,,,,,,,,,,,,,,,,,,,,,,,,,,,,,,,,,,,,,,,,,,,,,,SoundMST/Pour_F.wav,NEW,NA,,,space,5.34,0,57,57,37,1
,,,,,,,,,,,,,,,,3,2021-08-26_09h55.12.332,Session1,2020.2.10,Win32,60,,,,,,,,,,,,,,,,,,,,,,,,,,,,,,,,,,,,,,,,,,,,,,,,,,,,,,,,,,,,,,,SoundMST/HairDryer_A.wav,NEW,NA,,,space,4.417,0,58,58,38,1
,,,,,,,,,,,,,,,,3,2021-08-26_09h55.12.332,Session1,2020.2.10,Win32,60,,,,,,,,,,,,,,,,,,,,,,,,,,,,,,,,,,,,,,,,,,,,,,,,,,,,,,,,,,,,,,,SoundMST/Clap_A.wav,NEW,NA,,,space,4.202,0,59,59,48,1
,,,,,,,,,,,,,,,,3,2021-08-26_09h55.12.332,Session1,2020.2.10,Win32,60,,,,,,,,,,,,,,,,,,,,,,,,,,,,,,,,,,,,,,,,,,,,,,,,,,,,,,,,,,,,,,,SoundMST/Bubbles_B.wav,SIMILAR,NA,,,space,4.558,0,60,60,87,1
,,,,,,,,,,,,,,,,3,2021-08-26_09h55.12.332,Session1,2020.2.10,Win32,60,,,,,,,,,,,,,,,,,,,,,,,,,,,,,,,,,,,,,,,,,,,,,,,,,,,,,,,,,,,,,,,SoundMST/Fireworks.wav,NEW,NA,,,space,7.605,0,61,61,52,1
,,,,,,,,,,,,,,,,3,2021-08-26_09h55.12.332,Session1,2020.2.10,Win32,60,,,,,,,,,,,,,,,,,,,,,,,,,,,,,,,,,,,,,,,,,,,,,,,,,,,,,,,,,,,,,,,SoundMST/Howl.wav,NEW,NA,,,space,5.241,0,62,62,33,1
,,,,,,,,,,,,,,,,3,2021-08-26_09h55.12.332,Session1,2020.2.10,Win32,60,,,,,,,,,,,,,,,,,,,,,,,,,,,,,,,,,,,,,,,,,,,,,,,,,,,,,,,,,,,,,,,SoundMST/Puff_A.wav,NEW,NA,,,space,4.617,0,63,63,4,1
,,,,,,,,,,,,,,,,3,2021-08-26_09h55.12.332,Session1,2020.2.10,Win32,60,,,,,,,,,,,,,,,,,,,,,,,,,,,,,,,,,,,,,,,,,,,,,,,,,,,,,,,,,,,,,,,SoundMST/Footsteps_F.wav,SIMILAR,NA,,,space,7.19,0,64,64,80,1
,,,,,,,,,,,,,,,,3,2021-08-26_09h55.12.332,Session1,2020.2.10,Win32,60,,,,,,,,,,,,,,,,,,,,,,,,,,,,,,,,,,,,,,,,,,,,,,,,,,,,,,,,,,,,,,,SoundMST/Sneeze_B.wav,NEW,NA,,,space,3.474,0,65,65,43,1
,,,,,,,,,,,,,,,,3,2021-08-26_09h55.12.332,Session1,2020.2.10,Win32,60,,,,,,,,,,,,,,,,,,,,,,,,,,,,,,,,,,,,,,,,,,,,,,,,,,,,,,,,,,,,,,,SoundMST/Bowlingpins.wav,NEW,NA,,,space,14.732,0,66,66,59,1
,,,,,,,,,,,,,,,,3,2021-08-26_09h55.12.332,Session1,2020.2.10,Win32,60,,,,,,,,,,,,,,,,,,,,,,,,,,,,,,,,,,,,,,,,,,,,,,,,,,,,,,,,,,,,,,,SoundMST/Droplet_B.wav,NEW,NA,,,space,4.984,0,67,67,49,1
,,,,,,,,,,,,,,,,3,2021-08-26_09h55.12.332,Session1,2020.2.10,Win32,60,,,,,,,,,,,,,,,,,,,,,,,,,,,,,,,,,,,,,,,,,,,,,,,,,,,,,,,,,,,,,,,SoundMST/Elephant_C.wav,NEW,NA,,,space,3.888,0,68,68,3,1
,,,,,,,,,,,,,,,,3,2021-08-26_09h55.12.332,Session1,2020.2.10,Win32,60,,,,,,,,,,,,,,,,,,,,,,,,,,,,,,,,,,,,,,,,,,,,,,,,,,,,,,,,,,,,,,,SoundMST/Mosquito_B.wav,NEW,NA,,,space,3.542,0,69,69,17,1
,,,,,,,,,,,,,,,,3,2021-08-26_09h55.12.332,Session1,2020.2.10,Win32,60,,,,,,,,,,,,,,,,,,,,,,,,,,,,,,,,,,,,,,,,,,,,,,,,,,,,,,,,,,,,,,,SoundMST/CarStart_D.wav,SIMILAR,NA,,,space,4.639,0,70,70,65,1
,,,,,,,,,,,,,,,,3,2021-08-26_09h55.12.332,Session1,2020.2.10,Win32,60,,,,,,,,,,,,,,,,,,,,,,,,,,,,,,,,,,,,,,,,,,,,,,,,,,,,,,,,,,,,,,,SoundMST/Chicken_A.wav,NEW,NA,,,space,3.237,0,71,71,11,1
,,,,,,,,,,,,,,,,3,2021-08-26_09h55.12.332,Session1,2020.2.10,Win32,60,,,,,,,,,,,,,,,,,,,,,,,,,,,,,,,,,,,,,,,,,,,,,,,,,,,,,,,,,,,,,,,SoundMST/Trumpet_C.wav,SIMILAR,NA,,,space,3.892,0,72,72,66,1
,,,,,,,,,,,,,,,,3,2021-08-26_09h55.12.332,Session1,2020.2.10,Win32,60,,,,,,,,,,,,,,,,,,,,,,,,,,,,,,,,,,,,,,,,,,,,,,,,,,,,,,,,,,,,,,,SoundMST/Siren_E.wav,NEW,NA,,,space,4.475,0,73,73,54,1
,,,,,,,,,,,,,,,,3,2021-08-26_09h55.12.332,Session1,2020.2.10,Win32,60,,,,,,,,,,,,,,,,,,,,,,,,,,,,,,,,,,,,,,,,,,,,,,,,,,,,,,,,,,,,,,,SoundMST/ManWhistle_E.wav,SIMILAR,NA,,,space,3.126,0,74,74,85,1
,,,,,,,,,,,,,,,,3,2021-08-26_09h55.12.332,Session1,2020.2.10,Win32,60,,,,,,,,,,,,,,,,,,,,,,,,,,,,,,,,,,,,,,,,,,,,,,,,,,,,,,,,,,,,,,,SoundMST/Phone_E.wav,SIMILAR,NA,,,space,3.808,0,75,75,70,1
,,,,,,,,,,,,,,,,3,2021-08-26_09h55.12.332,Session1,2020.2.10,Win32,60,,,,,,,,,,,,,,,,,,,,,,,,,,,,,,,,,,,,,,,,,,,,,,,,,,,,,,,,,,,,,,,SoundMST/Buzz.wav,NEW,NA,,,space,5.891,0,76,76,0,1
,,,,,,,,,,,,,,,,3,2021-08-26_09h55.12.332,Session1,2020.2.10,Win32,60,,,,,,,,,,,,,,,,,,,,,,,,,,,,,,,,,,,,,,,,,,,,,,,,,,,,,,,,,,,,,,,SoundMST/Cough_I.wav,NEW,NA,,,space,3.586,0,77,77,18,1
,,,,,,,,,,,,,,,,3,2021-08-26_09h55.12.332,Session1,2020.2.10,Win32,60,,,,,,,,,,,,,,,,,,,,,,,,,,,,,,,,,,,,,,,,,,,,,,,,,,,,,,,,,,,,,,,SoundMST/Writing_A.wav,NEW,NA,,,space,5.019,0,78,78,1,1
,,,,,,,,,,,,,,,,3,2021-08-26_09h55.12.332,Session1,2020.2.10,Win32,60,,,,,,,,,,,,,,,,,,,,,,,,,,,,,,,,,,,,,,,,,,,,,,,,,,,,,,,,,,,,,,,SoundMST/Baby_C.wav,NEW,NA,,,space,3.485,0,79,79,19,1
,,,,,,,,,,,,,,,,3,2021-08-26_09h55.12.332,Session1,2020.2.10,Win32,60,,,,,,,,,,,,,,,,,,,,,,,,,,,,,,,,,,,,,,,,,,,,,,,,,,,,,,,,,,,,,,,SoundMST/Whistle_C.wav,SIMILAR,NA,,,space,2.869,0,80,80,82,1
,,,,,,,,,,,,,,,,3,2021-08-26_09h55.12.332,Session1,2020.2.10,Win32,60,,,,,,,,,,,,,,,,,,,,,,,,,,,,,,,,,,,,,,,,,,,,,,,,,,,,,,,,,,,,,,,SoundMST/Dog_H.wav,NEW,NA,,,space,2.718,0,81,81,29,1
,,,,,,,,,,,,,,,,3,2021-08-26_09h55.12.332,Session1,2020.2.10,Win32,60,,,,,,,,,,,,,,,,,,,,,,,,,,,,,,,,,,,,,,,,,,,,,,,,,,,,,,,,,,,,,,,SoundMST/Footsteps_C.wav,NEW,NA,,,space,5.134,0,82,82,41,1
,,,,,,,,,,,,,,,,3,2021-08-26_09h55.12.332,Session1,2020.2.10,Win32,60,,,,,,,,,,,,,,,,,,,,,,,,,,,,,,,,,,,,,,,,,,,,,,,,,,,,,,,,,,,,,,,SoundMST/Bullfrog.wav,NEW,NA,,,space,3.589,0,83,83,23,1
,,,,,,,,,,,,,,,,3,2021-08-26_09h55.12.332,Session1,2020.2.10,Win32,60,,,,,,,,,,,,,,,,,,,,,,,,,,,,,,,,,,,,,,,,,,,,,,,,,,,,,,,,,,,,,,,SoundMST/Siren_A.wav,SIMILAR,NA,,,space,4.46,0,84,84,83,1
,,,,,,,,,,,,,,,,3,2021-08-26_09h55.12.332,Session1,2020.2.10,Win32,60,,,,,,,,,,,,,,,,,,,,,,,,,,,,,,,,,,,,,,,,,,,,,,,,,,,,,,,,,,,,,,,SoundMST/Laugh_D.wav,SIMILAR,NA,,,space,4.239,0,85,85,78,1
,,,,,,,,,,,,,,,,3,2021-08-26_09h55.12.332,Session1,2020.2.10,Win32,60,,,,,,,,,,,,,,,,,,,,,,,,,,,,,,,,,,,,,,,,,,,,,,,,,,,,,,,,,,,,,,,SoundMST/IceDrop.wav,NEW,NA,,,space,5.035,0,86,86,55,1
,,,,,,,,,,,,,,,,3,2021-08-26_09h55.12.332,Session1,2020.2.10,Win32,60,,,,,,,,,,,,,,,,,,,,,,,,,,,,,,,,,,,,,,,,,,,,,,,,,,,,,,,,,,,,,,,SoundMST/Cough_J.wav,SIMILAR,NA,,,space,3.692,0,87,87,76,1
>>>>>>> 3c6b67de205bc033bdd7ba55cb73065ed20c0e27
,,,,,,,,,,,,,,,,3,2021-08-26_09h55.12.332,Session1,2020.2.10,Win32,60,,,,,,,,,,,,,,,,,,,,,space,395.611,,,,,,,,,,,,,,,,,,,,,,,,,,,,,,,,,,,,,,,,,,,,,,,,,,,,
