ContinueResp.keys,ContinueResp.rt,WelcomeContinueKey2.keys,WelcomeContinueKey2.rt,PracticeRespKey2.keys,PracticeRespKey2.rt,Practice_resp.keys,Practice_resp.rt,PracticeTrials.thisRepN,PracticeTrials.thisTrialN,PracticeTrials.thisN,PracticeTrials.thisIndex,PracticeTrials.ran,SoundFile,Type,Correct,participant,date,expName,psychopyVersion,OS,frameRate,StartTast.keys,StartTast.rt,MST_resp.keys,MST_resp.corr,MST_resp.rt,trials.thisRepN,trials.thisTrialN,trials.thisN,trials.thisIndex,trials.ran,File,WordCorrect,Correct_type,WordType,Condition,WordTask.thisRepN,WordTask.thisTrialN,WordTask.thisN,WordTask.thisIndex,WordTask.ran,End1Cont.keys,End1Cont.rt,key_resp.keys,key_resp.rt,PracticeRespKey2II.keys,PracticeRespKey2II.rt,PracticeSoundKey.keys,PracticeSoundKey.rt,SoundPracticeLoop.thisRepN,SoundPracticeLoop.thisTrialN,SoundPracticeLoop.thisN,SoundPracticeLoop.thisIndex,SoundPracticeLoop.ran,SoundMST_File,SoundCorrect,Correct2,SoundType,Trial,MSTSoundStrtKey.keys,MSTSoundStrtKey.rt,MSTSoundKey.keys,MSTSoundKey.corr,MSTSoundKey.rt,MSTSoundLoop.thisRepN,MSTSoundLoop.thisTrialN,MSTSoundLoop.thisN,MSTSoundLoop.thisIndex,MSTSoundLoop.ran,SoundTask.thisRepN,SoundTask.thisTrialN,SoundTask.thisN,SoundTask.thisIndex,SoundTask.ran,SimContKey.keys,SimContKey.rt,SimilarityRatingKey.keys,SimilarityRatingKey.rt,SimilarityRating.thisRepN,SimilarityRating.thisTrialN,SimilarityRating.thisN,SimilarityRating.thisIndex,SimilarityRating.ran,Sound1,Sound2,PairType,Welcome4End.keys,Welcome4End.rt,LabelingKey.keys,LabelingKey.rt,SoundLabelLoop.thisRepN,SoundLabelLoop.thisTrialN,SoundLabelLoop.thisN,SoundLabelLoop.thisIndex,SoundLabelLoop.ran
space,78.308,space,5.268,space,13.602,space,1.913,0,0,0,0,1,Training/FO_YI_LAY.wav,NEW,2,7,2021-10-14_09h34.11.900,Session1,2020.2.10,Win32,60,,,,,,,,,,,,,,,,,,,,,,,,,,,,,,,,,,,,,,,,,,,,,,,,,,,,,,,,,,,,,,,,,,,,,,,,,,
,,,,space,12.358,space,1.329,0,1,1,1,1,Training/FO_YI_LAY.wav,OLD,1,7,2021-10-14_09h34.11.900,Session1,2020.2.10,Win32,60,,,,,,,,,,,,,,,,,,,,,,,,,,,,,,,,,,,,,,,,,,,,,,,,,,,,,,,,,,,,,,,,,,,,,,,,,,
,,,,space,4.431,space,1.062,0,2,2,2,1,Training/YO_BU_JAY.wav,NEW,2,7,2021-10-14_09h34.11.900,Session1,2020.2.10,Win32,60,,,,,,,,,,,,,,,,,,,,,,,,,,,,,,,,,,,,,,,,,,,,,,,,,,,,,,,,,,,,,,,,,,,,,,,,,,
,,,,space,7.013,space,1.205,0,3,3,3,1,Training/JAY_YO_BU.wav,SIMILAR,2,7,2021-10-14_09h34.11.900,Session1,2020.2.10,Win32,60,,,,,,,,,,,,,,,,,,,,,,,,,,,,,,,,,,,,,,,,,,,,,,,,,,,,,,,,,,,,,,,,,,,,,,,,,,
,,,,space,11.026,space,3.6,0,4,4,4,1,Training/FO_YI_LAY.wav,OLD,1,7,2021-10-14_09h34.11.900,Session1,2020.2.10,Win32,60,,,,,,,,,,,,,,,,,,,,,,,,,,,,,,,,,,,,,,,,,,,,,,,,,,,,,,,,,,,,,,,,,,,,,,,,,,
,,,,,,,,,,,,,,,,7,2021-10-14_09h34.11.900,Session1,2020.2.10,Win32,60,space,12.038,2,1,3.652,0,0,0,0,1,TestWords/HA_SI_JAI.wav,2,NEW,NEW,A,,,,,,,,,,,,,,,,,,,,,,,,,,,,,,,,,,,,,,,,,,,,,,,,,,,,,,,,,,,
,,,,,,,,,,,,,,,,7,2021-10-14_09h34.11.900,Session1,2020.2.10,Win32,60,,,2,1,2.136,0,1,1,1,1,TestWords/KO_SU_FAI.wav,2,NEW,NEW,A,,,,,,,,,,,,,,,,,,,,,,,,,,,,,,,,,,,,,,,,,,,,,,,,,,,,,,,,,,,
,,,,,,,,,,,,,,,,7,2021-10-14_09h34.11.900,Session1,2020.2.10,Win32,60,,,2,1,1.986,0,2,2,2,1,TestWords/TAI_GI_SA.wav,2,NEW,NEW,A,,,,,,,,,,,,,,,,,,,,,,,,,,,,,,,,,,,,,,,,,,,,,,,,,,,,,,,,,,,
,,,,,,,,,,,,,,,,7,2021-10-14_09h34.11.900,Session1,2020.2.10,Win32,60,,,2,1,2.903,0,3,3,3,1,TestWords/KAI_LAY_TA.wav,2,NEW,NEW,A,,,,,,,,,,,,,,,,,,,,,,,,,,,,,,,,,,,,,,,,,,,,,,,,,,,,,,,,,,,
,,,,,,,,,,,,,,,,7,2021-10-14_09h34.11.900,Session1,2020.2.10,Win32,60,,,2,1,1.207,0,4,4,4,1,TestWords/RAY_PA_TI.wav,2,NEW,NEW,A,,,,,,,,,,,,,,,,,,,,,,,,,,,,,,,,,,,,,,,,,,,,,,,,,,,,,,,,,,,
,,,,,,,,,,,,,,,,7,2021-10-14_09h34.11.900,Session1,2020.2.10,Win32,60,,,2,0,8.789,0,5,5,5,1,TestWords/KO_SU_FAI.wav,1,OLD,OLD,A,,,,,,,,,,,,,,,,,,,,,,,,,,,,,,,,,,,,,,,,,,,,,,,,,,,,,,,,,,,
,,,,,,,,,,,,,,,,7,2021-10-14_09h34.11.900,Session1,2020.2.10,Win32,60,,,2,1,9.463,0,6,6,6,1,TestWords/TAI_SA_GI.wav,2,NEW,SIMILAR,A,,,,,,,,,,,,,,,,,,,,,,,,,,,,,,,,,,,,,,,,,,,,,,,,,,,,,,,,,,,
,,,,,,,,,,,,,,,,7,2021-10-14_09h34.11.900,Session1,2020.2.10,Win32,60,,,1,1,2.876,0,7,7,7,1,TestWords/KAI_LAY_TA.wav,1,OLD,OLD,A,,,,,,,,,,,,,,,,,,,,,,,,,,,,,,,,,,,,,,,,,,,,,,,,,,,,,,,,,,,
,,,,,,,,,,,,,,,,7,2021-10-14_09h34.11.900,Session1,2020.2.10,Win32,60,,,2,1,1.471,0,8,8,8,1,TestWords/NA_WAI_VU.wav,2,NEW,NEW,A,,,,,,,,,,,,,,,,,,,,,,,,,,,,,,,,,,,,,,,,,,,,,,,,,,,,,,,,,,,
,,,,,,,,,,,,,,,,7,2021-10-14_09h34.11.900,Session1,2020.2.10,Win32,60,,,1,1,3.719,0,9,9,9,1,TestWords/KO_SU_FAI.wav,1,OLD,OLD,A,,,,,,,,,,,,,,,,,,,,,,,,,,,,,,,,,,,,,,,,,,,,,,,,,,,,,,,,,,,
,,,,,,,,,,,,,,,,7,2021-10-14_09h34.11.900,Session1,2020.2.10,Win32,60,,,1,1,1.285,0,10,10,10,1,TestWords/RAY_PA_TI.wav,1,OLD,OLD,A,,,,,,,,,,,,,,,,,,,,,,,,,,,,,,,,,,,,,,,,,,,,,,,,,,,,,,,,,,,
,,,,,,,,,,,,,,,,7,2021-10-14_09h34.11.900,Session1,2020.2.10,Win32,60,,,2,1,3.139,0,11,11,11,1,TestWords/GI_SA_TAI.wav,2,NEW,SIMILAR,A,,,,,,,,,,,,,,,,,,,,,,,,,,,,,,,,,,,,,,,,,,,,,,,,,,,,,,,,,,,
,,,,,,,,,,,,,,,,7,2021-10-14_09h34.11.900,Session1,2020.2.10,Win32,60,,,2,1,7.987,0,12,12,12,1,TestWords/WAI_VU_NA.wav,2,NEW,SIMILAR,A,,,,,,,,,,,,,,,,,,,,,,,,,,,,,,,,,,,,,,,,,,,,,,,,,,,,,,,,,,,
,,,,,,,,,,,,,,,,7,2021-10-14_09h34.11.900,Session1,2020.2.10,Win32,60,,,1,1,1.636,0,13,13,13,1,TestWords/KAI_LAY_TA.wav,1,OLD,OLD,A,,,,,,,,,,,,,,,,,,,,,,,,,,,,,,,,,,,,,,,,,,,,,,,,,,,,,,,,,,,
,,,,,,,,,,,,,,,,7,2021-10-14_09h34.11.900,Session1,2020.2.10,Win32,60,,,2,1,3.267,0,14,14,14,1,TestWords/SI_VAI_CHU.wav,2,NEW,NEW,A,,,,,,,,,,,,,,,,,,,,,,,,,,,,,,,,,,,,,,,,,,,,,,,,,,,,,,,,,,,
,,,,,,,,,,,,,,,,7,2021-10-14_09h34.11.900,Session1,2020.2.10,Win32,60,,,1,0,2.371,0,15,15,15,1,TestWords/GI_TAI_SA.wav,2,NEW,SIMILAR,A,,,,,,,,,,,,,,,,,,,,,,,,,,,,,,,,,,,,,,,,,,,,,,,,,,,,,,,,,,,
,,,,,,,,,,,,,,,,7,2021-10-14_09h34.11.900,Session1,2020.2.10,Win32,60,,,1,1,3.537,0,16,16,16,1,TestWords/KO_SU_FAI.wav,1,OLD,OLD,A,,,,,,,,,,,,,,,,,,,,,,,,,,,,,,,,,,,,,,,,,,,,,,,,,,,,,,,,,,,
,,,,,,,,,,,,,,,,7,2021-10-14_09h34.11.900,Session1,2020.2.10,Win32,60,,,2,1,2.274,0,17,17,17,1,TestWords/DA_CHU_VAI.wav,2,NEW,NEW,A,,,,,,,,,,,,,,,,,,,,,,,,,,,,,,,,,,,,,,,,,,,,,,,,,,,,,,,,,,,
,,,,,,,,,,,,,,,,7,2021-10-14_09h34.11.900,Session1,2020.2.10,Win32,60,,,1,1,1.485,0,18,18,18,1,TestWords/RAY_PA_TI.wav,1,OLD,OLD,A,,,,,,,,,,,,,,,,,,,,,,,,,,,,,,,,,,,,,,,,,,,,,,,,,,,,,,,,,,,
,,,,,,,,,,,,,,,,7,2021-10-14_09h34.11.900,Session1,2020.2.10,Win32,60,,,1,1,1.87,0,19,19,19,1,TestWords/KAI_LAY_TA.wav,1,OLD,OLD,A,,,,,,,,,,,,,,,,,,,,,,,,,,,,,,,,,,,,,,,,,,,,,,,,,,,,,,,,,,,
,,,,,,,,,,,,,,,,7,2021-10-14_09h34.11.900,Session1,2020.2.10,Win32,60,,,1,0,1.121,0,20,20,20,1,TestWords/WAI_NA_VU.wav,2,NEW,SIMILAR,A,,,,,,,,,,,,,,,,,,,,,,,,,,,,,,,,,,,,,,,,,,,,,,,,,,,,,,,,,,,
,,,,,,,,,,,,,,,,7,2021-10-14_09h34.11.900,Session1,2020.2.10,Win32,60,,,1,1,1.468,0,21,21,21,1,TestWords/KO_SU_FAI.wav,1,OLD,OLD,A,,,,,,,,,,,,,,,,,,,,,,,,,,,,,,,,,,,,,,,,,,,,,,,,,,,,,,,,,,,
,,,,,,,,,,,,,,,,7,2021-10-14_09h34.11.900,Session1,2020.2.10,Win32,60,,,1,0,2.934,0,22,22,22,1,TestWords/SA_TAI_GI.wav,2,NEW,SIMILAR,A,,,,,,,,,,,,,,,,,,,,,,,,,,,,,,,,,,,,,,,,,,,,,,,,,,,,,,,,,,,
,,,,,,,,,,,,,,,,7,2021-10-14_09h34.11.900,Session1,2020.2.10,Win32,60,,,1,1,1.419,0,23,23,23,1,TestWords/RAY_PA_TI.wav,1,OLD,OLD,A,,,,,,,,,,,,,,,,,,,,,,,,,,,,,,,,,,,,,,,,,,,,,,,,,,,,,,,,,,,
,,,,,,,,,,,,,,,,7,2021-10-14_09h34.11.900,Session1,2020.2.10,Win32,60,,,1,0,2.701,0,24,24,24,1,TestWords/VU_NA_WAI.wav,2,NEW,SIMILAR,A,,,,,,,,,,,,,,,,,,,,,,,,,,,,,,,,,,,,,,,,,,,,,,,,,,,,,,,,,,,
,,,,,,,,,,,,,,,,7,2021-10-14_09h34.11.900,Session1,2020.2.10,Win32,60,,,1,1,1.817,0,25,25,25,1,TestWords/KAI_LAY_TA.wav,1,OLD,OLD,A,,,,,,,,,,,,,,,,,,,,,,,,,,,,,,,,,,,,,,,,,,,,,,,,,,,,,,,,,,,
,,,,,,,,,,,,,,,,7,2021-10-14_09h34.11.900,Session1,2020.2.10,Win32,60,,,2,1,1.605,0,26,26,26,1,TestWords/WAI_RO_JU.wav,2,NEW,NEW,A,,,,,,,,,,,,,,,,,,,,,,,,,,,,,,,,,,,,,,,,,,,,,,,,,,,,,,,,,,,
,,,,,,,,,,,,,,,,7,2021-10-14_09h34.11.900,Session1,2020.2.10,Win32,60,,,1,1,2.643,0,27,27,27,1,TestWords/KO_SU_FAI.wav,1,OLD,OLD,A,,,,,,,,,,,,,,,,,,,,,,,,,,,,,,,,,,,,,,,,,,,,,,,,,,,,,,,,,,,
,,,,,,,,,,,,,,,,7,2021-10-14_09h34.11.900,Session1,2020.2.10,Win32,60,,,1,0,3.984,0,28,28,28,1,TestWords/SA_GI_TAI.wav,2,NEW,SIMILAR,A,,,,,,,,,,,,,,,,,,,,,,,,,,,,,,,,,,,,,,,,,,,,,,,,,,,,,,,,,,,
,,,,,,,,,,,,,,,,7,2021-10-14_09h34.11.900,Session1,2020.2.10,Win32,60,,,1,1,1.151,0,29,29,29,1,TestWords/RAY_PA_TI.wav,1,OLD,OLD,A,,,,,,,,,,,,,,,,,,,,,,,,,,,,,,,,,,,,,,,,,,,,,,,,,,,,,,,,,,,
,,,,,,,,,,,,,,,,7,2021-10-14_09h34.11.900,Session1,2020.2.10,Win32,60,,,2,1,4.434,0,30,30,30,1,TestWords/GA_MU_ZI.wav,2,NEW,NEW,A,,,,,,,,,,,,,,,,,,,,,,,,,,,,,,,,,,,,,,,,,,,,,,,,,,,,,,,,,,,
,,,,,,,,,,,,,,,,7,2021-10-14_09h34.11.900,Session1,2020.2.10,Win32,60,,,1,1,1.392,0,31,31,31,1,TestWords/KAI_LAY_TA.wav,1,OLD,OLD,A,,,,,,,,,,,,,,,,,,,,,,,,,,,,,,,,,,,,,,,,,,,,,,,,,,,,,,,,,,,
,,,,,,,,,,,,,,,,7,2021-10-14_09h34.11.900,Session1,2020.2.10,Win32,60,,,1,0,1.534,0,32,32,32,1,TestWords/VU_WAI_NA.wav,2,NEW,SIMILAR,A,,,,,,,,,,,,,,,,,,,,,,,,,,,,,,,,,,,,,,,,,,,,,,,,,,,,,,,,,,,
,,,,,,,,,,,,,,,,7,2021-10-14_09h34.11.900,Session1,2020.2.10,Win32,60,,,1,1,0.988,0,33,33,33,1,TestWords/RAY_PA_TI.wav,1,OLD,OLD,A,,,,,,,,,,,,,,,,,,,,,,,,,,,,,,,,,,,,,,,,,,,,,,,,,,,,,,,,,,,
,,,,,,,,,,,,,,,,7,2021-10-14_09h34.11.900,Session1,2020.2.10,Win32,60,,,2,1,3.368,0,34,34,34,1,TestWords/LI_KAY_BA.wav,2,NEW,NEW,A,,,,,,,,,,,,,,,,,,,,,,,,,,,,,,,,,,,,,,,,,,,,,,,,,,,,,,,,,,,
,,,,,,,,,,,,,,,,7,2021-10-14_09h34.11.900,Session1,2020.2.10,Win32,60,,,2,1,1.418,0,35,35,35,1,TestWords/HI_NAY_VA.wav,2,NEW,NEW,A,,,,,,,,,,,,,,,,,,,,,,,,,,,,,,,,,,,,,,,,,,,,,,,,,,,,,,,,,,,
,,,,,,,,,,,,,,,,7,2021-10-14_09h34.11.900,Session1,2020.2.10,Win32,60,,,1,1,1.301,0,36,36,36,1,TestWords/KO_SU_FAI.wav,1,OLD,OLD,A,,,,,,,,,,,,,,,,,,,,,,,,,,,,,,,,,,,,,,,,,,,,,,,,,,,,,,,,,,,
,,,,,,,,,,,,,,,,7,2021-10-14_09h34.11.900,Session1,2020.2.10,Win32,60,,,1,0,2.933,0,37,37,37,1,TestWords/NA_VU_WAI.wav,2,NEW,SIMILAR,A,,,,,,,,,,,,,,,,,,,,,,,,,,,,,,,,,,,,,,,,,,,,,,,,,,,,,,,,,,,
,,,,,,,,,,,,,,,,7,2021-10-14_09h34.11.900,Session1,2020.2.10,Win32,60,,,1,1,1.886,0,38,38,38,1,TestWords/GA_MU_ZI.wav,1,OLD,OLD,A,,,,,,,,,,,,,,,,,,,,,,,,,,,,,,,,,,,,,,,,,,,,,,,,,,,,,,,,,,,
,,,,,,,,,,,,,,,,7,2021-10-14_09h34.11.900,Session1,2020.2.10,Win32,60,,,1,1,1.342,0,39,39,39,1,TestWords/KAI_LAY_TA.wav,1,OLD,OLD,A,,,,,,,,,,,,,,,,,,,,,,,,,,,,,,,,,,,,,,,,,,,,,,,,,,,,,,,,,,,
,,,,,,,,,,,,,,,,7,2021-10-14_09h34.11.900,Session1,2020.2.10,Win32,60,,,2,1,2.584,0,40,40,40,1,TestWords/DAI_RU_CHI.wav,2,NEW,NEW,A,,,,,,,,,,,,,,,,,,,,,,,,,,,,,,,,,,,,,,,,,,,,,,,,,,,,,,,,,,,
,,,,,,,,,,,,,,,,7,2021-10-14_09h34.11.900,Session1,2020.2.10,Win32,60,,,2,1,1.718,0,41,41,41,1,TestWords/NU_CHAY_SO.wav,2,NEW,NEW,A,,,,,,,,,,,,,,,,,,,,,,,,,,,,,,,,,,,,,,,,,,,,,,,,,,,,,,,,,,,
,,,,,,,,,,,,,,,,7,2021-10-14_09h34.11.900,Session1,2020.2.10,Win32,60,,,1,1,1.052,0,42,42,42,1,TestWords/RAY_PA_TI.wav,1,OLD,OLD,A,,,,,,,,,,,,,,,,,,,,,,,,,,,,,,,,,,,,,,,,,,,,,,,,,,,,,,,,,,,
,,,,,,,,,,,,,,,,7,2021-10-14_09h34.11.900,Session1,2020.2.10,Win32,60,,,1,0,5.151,0,43,43,43,1,TestWords/BA_KAY_LI.wav,2,NEW,SIMILAR,A,,,,,,,,,,,,,,,,,,,,,,,,,,,,,,,,,,,,,,,,,,,,,,,,,,,,,,,,,,,
,,,,,,,,,,,,,,,,7,2021-10-14_09h34.11.900,Session1,2020.2.10,Win32,60,,,1,1,1.251,0,44,44,44,1,TestWords/KO_SU_FAI.wav,1,OLD,OLD,A,,,,,,,,,,,,,,,,,,,,,,,,,,,,,,,,,,,,,,,,,,,,,,,,,,,,,,,,,,,
,,,,,,,,,,,,,,,,7,2021-10-14_09h34.11.900,Session1,2020.2.10,Win32,60,,,1,1,0.842,0,45,45,45,1,TestWords/GA_MU_ZI.wav,1,OLD,OLD,A,,,,,,,,,,,,,,,,,,,,,,,,,,,,,,,,,,,,,,,,,,,,,,,,,,,,,,,,,,,
,,,,,,,,,,,,,,,,7,2021-10-14_09h34.11.900,Session1,2020.2.10,Win32,60,,,1,0,2.388,0,46,46,46,1,TestWords/CHU_LA_PAY.wav,2,NEW,NEW,A,,,,,,,,,,,,,,,,,,,,,,,,,,,,,,,,,,,,,,,,,,,,,,,,,,,,,,,,,,,
,,,,,,,,,,,,,,,,7,2021-10-14_09h34.11.900,Session1,2020.2.10,Win32,60,,,1,1,0.968,0,47,47,47,1,TestWords/KAI_LAY_TA.wav,1,OLD,OLD,A,,,,,,,,,,,,,,,,,,,,,,,,,,,,,,,,,,,,,,,,,,,,,,,,,,,,,,,,,,,
,,,,,,,,,,,,,,,,7,2021-10-14_09h34.11.900,Session1,2020.2.10,Win32,60,,,1,1,1.544,0,48,48,48,1,TestWords/DAI_RU_CHI.wav,1,OLD,OLD,A,,,,,,,,,,,,,,,,,,,,,,,,,,,,,,,,,,,,,,,,,,,,,,,,,,,,,,,,,,,
,,,,,,,,,,,,,,,,7,2021-10-14_09h34.11.900,Session1,2020.2.10,Win32,60,,,1,1,1.071,0,49,49,49,1,TestWords/KO_SU_FAI.wav,1,OLD,OLD,A,,,,,,,,,,,,,,,,,,,,,,,,,,,,,,,,,,,,,,,,,,,,,,,,,,,,,,,,,,,
,,,,,,,,,,,,,,,,7,2021-10-14_09h34.11.900,Session1,2020.2.10,Win32,60,,,2,1,5.953,0,50,50,50,1,TestWords/KAY_LI_BA.wav,2,NEW,SIMILAR,A,,,,,,,,,,,,,,,,,,,,,,,,,,,,,,,,,,,,,,,,,,,,,,,,,,,,,,,,,,,
,,,,,,,,,,,,,,,,7,2021-10-14_09h34.11.900,Session1,2020.2.10,Win32,60,,,1,1,1.02,0,51,51,51,1,TestWords/RAY_PA_TI.wav,1,OLD,OLD,A,,,,,,,,,,,,,,,,,,,,,,,,,,,,,,,,,,,,,,,,,,,,,,,,,,,,,,,,,,,
,,,,,,,,,,,,,,,,7,2021-10-14_09h34.11.900,Session1,2020.2.10,Win32,60,,,1,1,0.72,0,52,52,52,1,TestWords/KAI_LAY_TA.wav,1,OLD,OLD,A,,,,,,,,,,,,,,,,,,,,,,,,,,,,,,,,,,,,,,,,,,,,,,,,,,,,,,,,,,,
,,,,,,,,,,,,,,,,7,2021-10-14_09h34.11.900,Session1,2020.2.10,Win32,60,,,1,0,3.135,0,53,53,53,1,TestWords/HO_NAY_VA.wav,2,NEW,NEW,A,,,,,,,,,,,,,,,,,,,,,,,,,,,,,,,,,,,,,,,,,,,,,,,,,,,,,,,,,,,
,,,,,,,,,,,,,,,,7,2021-10-14_09h34.11.900,Session1,2020.2.10,Win32,60,,,1,1,1.118,0,54,54,54,1,TestWords/GA_MU_ZI.wav,1,OLD,OLD,A,,,,,,,,,,,,,,,,,,,,,,,,,,,,,,,,,,,,,,,,,,,,,,,,,,,,,,,,,,,
,,,,,,,,,,,,,,,,7,2021-10-14_09h34.11.900,Session1,2020.2.10,Win32,60,,,1,1,1.085,0,55,55,55,1,TestWords/DAI_RU_CHI.wav,1,OLD,OLD,A,,,,,,,,,,,,,,,,,,,,,,,,,,,,,,,,,,,,,,,,,,,,,,,,,,,,,,,,,,,
,,,,,,,,,,,,,,,,7,2021-10-14_09h34.11.900,Session1,2020.2.10,Win32,60,,,1,0,4.103,0,56,56,56,1,TestWords/MO_PU_DAY.wav,2,NEW,NEW,A,,,,,,,,,,,,,,,,,,,,,,,,,,,,,,,,,,,,,,,,,,,,,,,,,,,,,,,,,,,
,,,,,,,,,,,,,,,,7,2021-10-14_09h34.11.900,Session1,2020.2.10,Win32,60,,,1,1,0.905,0,57,57,57,1,TestWords/KO_SU_FAI.wav,1,OLD,OLD,A,,,,,,,,,,,,,,,,,,,,,,,,,,,,,,,,,,,,,,,,,,,,,,,,,,,,,,,,,,,
,,,,,,,,,,,,,,,,7,2021-10-14_09h34.11.900,Session1,2020.2.10,Win32,60,,,1,0,0.918,0,58,58,58,1,TestWords/KAY_BA_LI.wav,2,NEW,SIMILAR,A,,,,,,,,,,,,,,,,,,,,,,,,,,,,,,,,,,,,,,,,,,,,,,,,,,,,,,,,,,,
,,,,,,,,,,,,,,,,7,2021-10-14_09h34.11.900,Session1,2020.2.10,Win32,60,,,1,1,1.057,0,59,59,59,1,TestWords/RAY_PA_TI.wav,1,OLD,OLD,A,,,,,,,,,,,,,,,,,,,,,,,,,,,,,,,,,,,,,,,,,,,,,,,,,,,,,,,,,,,
,,,,,,,,,,,,,,,,7,2021-10-14_09h34.11.900,Session1,2020.2.10,Win32,60,,,1,1,1.035,0,60,60,60,1,TestWords/KAI_LAY_TA.wav,1,OLD,OLD,A,,,,,,,,,,,,,,,,,,,,,,,,,,,,,,,,,,,,,,,,,,,,,,,,,,,,,,,,,,,
,,,,,,,,,,,,,,,,7,2021-10-14_09h34.11.900,Session1,2020.2.10,Win32,60,,,1,1,1.07,0,61,61,61,1,TestWords/GA_MU_ZI.wav,1,OLD,OLD,A,,,,,,,,,,,,,,,,,,,,,,,,,,,,,,,,,,,,,,,,,,,,,,,,,,,,,,,,,,,
,,,,,,,,,,,,,,,,7,2021-10-14_09h34.11.900,Session1,2020.2.10,Win32,60,,,1,0,4.551,0,62,62,62,1,TestWords/DAY_PU_MO.wav,2,NEW,SIMILAR,A,,,,,,,,,,,,,,,,,,,,,,,,,,,,,,,,,,,,,,,,,,,,,,,,,,,,,,,,,,,
,,,,,,,,,,,,,,,,7,2021-10-14_09h34.11.900,Session1,2020.2.10,Win32,60,,,1,1,1.24,0,63,63,63,1,TestWords/DAI_RU_CHI.wav,1,OLD,OLD,A,,,,,,,,,,,,,,,,,,,,,,,,,,,,,,,,,,,,,,,,,,,,,,,,,,,,,,,,,,,
,,,,,,,,,,,,,,,,7,2021-10-14_09h34.11.900,Session1,2020.2.10,Win32,60,,,1,0,1.619,0,64,64,64,1,TestWords/LI_BA_KAY.wav,2,NEW,SIMILAR,A,,,,,,,,,,,,,,,,,,,,,,,,,,,,,,,,,,,,,,,,,,,,,,,,,,,,,,,,,,,
,,,,,,,,,,,,,,,,7,2021-10-14_09h34.11.900,Session1,2020.2.10,Win32,60,,,1,1,1.635,0,65,65,65,1,TestWords/KAI_LAY_TA.wav,1,OLD,OLD,A,,,,,,,,,,,,,,,,,,,,,,,,,,,,,,,,,,,,,,,,,,,,,,,,,,,,,,,,,,,
,,,,,,,,,,,,,,,,7,2021-10-14_09h34.11.900,Session1,2020.2.10,Win32,60,,,1,1,1.37,0,66,66,66,1,TestWords/KO_SU_FAI.wav,1,OLD,OLD,A,,,,,,,,,,,,,,,,,,,,,,,,,,,,,,,,,,,,,,,,,,,,,,,,,,,,,,,,,,,
,,,,,,,,,,,,,,,,7,2021-10-14_09h34.11.900,Session1,2020.2.10,Win32,60,,,1,0,1.536,0,67,67,67,1,TestWords/DAY_MO_PU.wav,2,NEW,SIMILAR,A,,,,,,,,,,,,,,,,,,,,,,,,,,,,,,,,,,,,,,,,,,,,,,,,,,,,,,,,,,,
,,,,,,,,,,,,,,,,7,2021-10-14_09h34.11.900,Session1,2020.2.10,Win32,60,,,1,1,0.936,0,68,68,68,1,TestWords/RAY_PA_TI.wav,1,OLD,OLD,A,,,,,,,,,,,,,,,,,,,,,,,,,,,,,,,,,,,,,,,,,,,,,,,,,,,,,,,,,,,
,,,,,,,,,,,,,,,,7,2021-10-14_09h34.11.900,Session1,2020.2.10,Win32,60,,,1,1,1.119,0,69,69,69,1,TestWords/GA_MU_ZI.wav,1,OLD,OLD,A,,,,,,,,,,,,,,,,,,,,,,,,,,,,,,,,,,,,,,,,,,,,,,,,,,,,,,,,,,,
,,,,,,,,,,,,,,,,7,2021-10-14_09h34.11.900,Session1,2020.2.10,Win32,60,,,1,0,3.807,0,70,70,70,1,TestWords/BA_LI_KAY.wav,2,NEW,SIMILAR,A,,,,,,,,,,,,,,,,,,,,,,,,,,,,,,,,,,,,,,,,,,,,,,,,,,,,,,,,,,,
,,,,,,,,,,,,,,,,7,2021-10-14_09h34.11.900,Session1,2020.2.10,Win32,60,,,1,1,1.284,0,71,71,71,1,TestWords/DAI_RU_CHI.wav,1,OLD,OLD,A,,,,,,,,,,,,,,,,,,,,,,,,,,,,,,,,,,,,,,,,,,,,,,,,,,,,,,,,,,,
,,,,,,,,,,,,,,,,7,2021-10-14_09h34.11.900,Session1,2020.2.10,Win32,60,,,2,1,1.392,0,72,72,72,1,TestWords/LU_HAI_BO.wav,2,NEW,NEW,A,,,,,,,,,,,,,,,,,,,,,,,,,,,,,,,,,,,,,,,,,,,,,,,,,,,,,,,,,,,
,,,,,,,,,,,,,,,,7,2021-10-14_09h34.11.900,Session1,2020.2.10,Win32,60,,,1,1,0.952,0,73,73,73,1,TestWords/RAY_PA_TI.wav,1,OLD,OLD,A,,,,,,,,,,,,,,,,,,,,,,,,,,,,,,,,,,,,,,,,,,,,,,,,,,,,,,,,,,,
,,,,,,,,,,,,,,,,7,2021-10-14_09h34.11.900,Session1,2020.2.10,Win32,60,,,1,1,1.02,0,74,74,74,1,TestWords/GA_MU_ZI.wav,1,OLD,OLD,A,,,,,,,,,,,,,,,,,,,,,,,,,,,,,,,,,,,,,,,,,,,,,,,,,,,,,,,,,,,
,,,,,,,,,,,,,,,,7,2021-10-14_09h34.11.900,Session1,2020.2.10,Win32,60,,,2,1,3.917,0,75,75,75,1,TestWords/MO_DAY_PU.wav,2,NEW,SIMILAR,A,,,,,,,,,,,,,,,,,,,,,,,,,,,,,,,,,,,,,,,,,,,,,,,,,,,,,,,,,,,
,,,,,,,,,,,,,,,,7,2021-10-14_09h34.11.900,Session1,2020.2.10,Win32,60,,,1,1,5.134,0,76,76,76,1,TestWords/DAI_RU_CHI.wav,1,OLD,OLD,A,,,,,,,,,,,,,,,,,,,,,,,,,,,,,,,,,,,,,,,,,,,,,,,,,,,,,,,,,,,
,,,,,,,,,,,,,,,,7,2021-10-14_09h34.11.900,Session1,2020.2.10,Win32,60,,,2,1,1.401,0,77,77,77,1,TestWords/ZO_FU_RAI.wav,2,NEW,NEW,A,,,,,,,,,,,,,,,,,,,,,,,,,,,,,,,,,,,,,,,,,,,,,,,,,,,,,,,,,,,
,,,,,,,,,,,,,,,,7,2021-10-14_09h34.11.900,Session1,2020.2.10,Win32,60,,,2,1,1.109,0,78,78,78,1,TestWords/NO_WA_BAY.wav,2,NEW,NEW,A,,,,,,,,,,,,,,,,,,,,,,,,,,,,,,,,,,,,,,,,,,,,,,,,,,,,,,,,,,,
,,,,,,,,,,,,,,,,7,2021-10-14_09h34.11.900,Session1,2020.2.10,Win32,60,,,1,1,1.209,0,79,79,79,1,TestWords/GA_MU_ZI.wav,1,OLD,OLD,A,,,,,,,,,,,,,,,,,,,,,,,,,,,,,,,,,,,,,,,,,,,,,,,,,,,,,,,,,,,
,,,,,,,,,,,,,,,,7,2021-10-14_09h34.11.900,Session1,2020.2.10,Win32,60,,,1,1,1.121,0,80,80,80,1,TestWords/DAI_RU_CHI.wav,1,OLD,OLD,A,,,,,,,,,,,,,,,,,,,,,,,,,,,,,,,,,,,,,,,,,,,,,,,,,,,,,,,,,,,
,,,,,,,,,,,,,,,,7,2021-10-14_09h34.11.900,Session1,2020.2.10,Win32,60,,,2,1,4.785,0,81,81,81,1,TestWords/PU_DAY_MO.wav,2,NEW,SIMILAR,A,,,,,,,,,,,,,,,,,,,,,,,,,,,,,,,,,,,,,,,,,,,,,,,,,,,,,,,,,,,
,,,,,,,,,,,,,,,,7,2021-10-14_09h34.11.900,Session1,2020.2.10,Win32,60,,,2,1,2.408,0,82,82,82,1,TestWords/RAI_ZO_FU.wav,2,NEW,SIMILAR,A,,,,,,,,,,,,,,,,,,,,,,,,,,,,,,,,,,,,,,,,,,,,,,,,,,,,,,,,,,,
,,,,,,,,,,,,,,,,7,2021-10-14_09h34.11.900,Session1,2020.2.10,Win32,60,,,1,1,1.001,0,83,83,83,1,TestWords/GA_MU_ZI.wav,1,OLD,OLD,A,,,,,,,,,,,,,,,,,,,,,,,,,,,,,,,,,,,,,,,,,,,,,,,,,,,,,,,,,,,
,,,,,,,,,,,,,,,,7,2021-10-14_09h34.11.900,Session1,2020.2.10,Win32,60,,,2,1,1.667,0,84,84,84,1,TestWords/PAI_LU_WA.wav,2,NEW,NEW,A,,,,,,,,,,,,,,,,,,,,,,,,,,,,,,,,,,,,,,,,,,,,,,,,,,,,,,,,,,,
,,,,,,,,,,,,,,,,7,2021-10-14_09h34.11.900,Session1,2020.2.10,Win32,60,,,2,1,2.755,0,85,85,85,1,TestWords/PU_MO_DAY.wav,2,NEW,SIMILAR,A,,,,,,,,,,,,,,,,,,,,,,,,,,,,,,,,,,,,,,,,,,,,,,,,,,,,,,,,,,,
,,,,,,,,,,,,,,,,7,2021-10-14_09h34.11.900,Session1,2020.2.10,Win32,60,,,1,1,1.485,0,86,86,86,1,TestWords/DAI_RU_CHI.wav,1,OLD,OLD,A,,,,,,,,,,,,,,,,,,,,,,,,,,,,,,,,,,,,,,,,,,,,,,,,,,,,,,,,,,,
,,,,,,,,,,,,,,,,7,2021-10-14_09h34.11.900,Session1,2020.2.10,Win32,60,,,2,1,3.916,0,87,87,87,1,TestWords/ZO_RAI_FU.wav,2,NEW,SIMILAR,A,,,,,,,,,,,,,,,,,,,,,,,,,,,,,,,,,,,,,,,,,,,,,,,,,,,,,,,,,,,
,,,,,,,,,,,,,,,,7,2021-10-14_09h34.11.900,Session1,2020.2.10,Win32,60,,,2,1,2.519,0,88,88,88,1,TestWords/FI_GU_CHA.wav,2,NEW,NEW,A,,,,,,,,,,,,,,,,,,,,,,,,,,,,,,,,,,,,,,,,,,,,,,,,,,,,,,,,,,,
,,,,,,,,,,,,,,,,7,2021-10-14_09h34.11.900,Session1,2020.2.10,Win32,60,,,1,1,1.168,0,89,89,89,1,TestWords/GA_MU_ZI.wav,1,OLD,OLD,A,,,,,,,,,,,,,,,,,,,,,,,,,,,,,,,,,,,,,,,,,,,,,,,,,,,,,,,,,,,
,,,,,,,,,,,,,,,,7,2021-10-14_09h34.11.900,Session1,2020.2.10,Win32,60,,,1,1,0.968,0,90,90,90,1,TestWords/DAI_RU_CHI.wav,1,OLD,OLD,A,,,,,,,,,,,,,,,,,,,,,,,,,,,,,,,,,,,,,,,,,,,,,,,,,,,,,,,,,,,
,,,,,,,,,,,,,,,,7,2021-10-14_09h34.11.900,Session1,2020.2.10,Win32,60,,,1,0,1.723,0,91,91,91,1,TestWords/FU_RAI_ZO.wav,2,NEW,SIMILAR,A,,,,,,,,,,,,,,,,,,,,,,,,,,,,,,,,,,,,,,,,,,,,,,,,,,,,,,,,,,,
,,,,,,,,,,,,,,,,7,2021-10-14_09h34.11.900,Session1,2020.2.10,Win32,60,,,2,1,2.966,0,92,92,92,1,TestWords/GU_CHAI_PI.wav,2,NEW,NEW,A,,,,,,,,,,,,,,,,,,,,,,,,,,,,,,,,,,,,,,,,,,,,,,,,,,,,,,,,,,,
,,,,,,,,,,,,,,,,7,2021-10-14_09h34.11.900,Session1,2020.2.10,Win32,60,,,1,1,1.187,0,93,93,93,1,TestWords/GA_MU_ZI.wav,1,OLD,OLD,A,,,,,,,,,,,,,,,,,,,,,,,,,,,,,,,,,,,,,,,,,,,,,,,,,,,,,,,,,,,
,,,,,,,,,,,,,,,,7,2021-10-14_09h34.11.900,Session1,2020.2.10,Win32,60,,,1,1,0.835,0,94,94,94,1,TestWords/DAI_RU_CHI.wav,1,OLD,OLD,A,,,,,,,,,,,,,,,,,,,,,,,,,,,,,,,,,,,,,,,,,,,,,,,,,,,,,,,,,,,
,,,,,,,,,,,,,,,,7,2021-10-14_09h34.11.900,Session1,2020.2.10,Win32,60,,,1,0,1.689,0,95,95,95,1,TestWords/FU_ZO_RAI.wav,2,NEW,SIMILAR,A,,,,,,,,,,,,,,,,,,,,,,,,,,,,,,,,,,,,,,,,,,,,,,,,,,,,,,,,,,,
,,,,,,,,,,,,,,,,7,2021-10-14_09h34.11.900,Session1,2020.2.10,Win32,60,,,2,1,1.668,0,96,96,96,1,TestWords/VAI_HO_LA.wav,2,NEW,NEW,A,,,,,,,,,,,,,,,,,,,,,,,,,,,,,,,,,,,,,,,,,,,,,,,,,,,,,,,,,,,
,,,,,,,,,,,,,,,,7,2021-10-14_09h34.11.900,Session1,2020.2.10,Win32,60,,,1,1,0.957,0,97,97,97,1,TestWords/DAI_RU_CHI.wav,1,OLD,OLD,A,,,,,,,,,,,,,,,,,,,,,,,,,,,,,,,,,,,,,,,,,,,,,,,,,,,,,,,,,,,
,,,,,,,,,,,,,,,,7,2021-10-14_09h34.11.900,Session1,2020.2.10,Win32,60,,,2,1,1.218,0,98,98,98,1,TestWords/LA_ZAY_CHAI.wav,2,NEW,NEW,A,,,,,,,,,,,,,,,,,,,,,,,,,,,,,,,,,,,,,,,,,,,,,,,,,,,,,,,,,,,
,,,,,,,,,,,,,,,,7,2021-10-14_09h34.11.900,Session1,2020.2.10,Win32,60,,,2,1,4.532,0,99,99,99,1,TestWords/RAI_FU_ZO.wav,2,NEW,SIMILAR,A,,,,,,,,,,,,,,,,,,,,,,,,,,,,,,,,,,,,,,,,,,,,,,,,,,,,,,,,,,,
,,,,,,,,,,,,,,,,7,2021-10-14_09h34.11.900,Session1,2020.2.10,Win32,60,,,,,,,,,,,,,,,,0,0,0,0,1,,,,,,,,,,,,,,,,,,,,,,,,,,,,,,,,,,,,,,,,,,,,,,,,,,,,,,
,,space,1.318,,,,,,,,,,,,,7,2021-10-14_09h34.11.900,Session1,2020.2.10,Win32,60,,,,,,,,,,,,,,,,,,,,,space,11.293,space,25.731,space,4.12,space,0.652,0,0,0,0,1,Practice/Seagull_A.wav,2,3,NEW,Practice,,,,,,,,,,,,,,,,,,,,,,,,,,,,,,,,,,,,
,,,,,,,,,,,,,,,,7,2021-10-14_09h34.11.900,Session1,2020.2.10,Win32,60,,,,,,,,,,,,,,,,,,,,,,,,,space,2.936,space,0.819,0,1,1,1,1,Practice/Skid_B.wav,2,3,NEW,Practice,,,,,,,,,,,,,,,,,,,,,,,,,,,,,,,,,,,,
,,,,,,,,,,,,,,,,7,2021-10-14_09h34.11.900,Session1,2020.2.10,Win32,60,,,,,,,,,,,,,,,,,,,,,,,,,space,2.365,space,0.719,0,2,2,2,1,Practice/Seagull_A.wav,1,1,OLD,Practice,,,,,,,,,,,,,,,,,,,,,,,,,,,,,,,,,,,,
,,,,,,,,,,,,,,,,7,2021-10-14_09h34.11.900,Session1,2020.2.10,Win32,60,,,,,,,,,,,,,,,,,,,,,,,,,space,3.697,space,1.331,0,3,3,3,1,Practice/Gargle_A.wav,2,3,NEW,Practice,,,,,,,,,,,,,,,,,,,,,,,,,,,,,,,,,,,,
,,,,,,,,,,,,,,,,7,2021-10-14_09h34.11.900,Session1,2020.2.10,Win32,60,,,,,,,,,,,,,,,,,,,,,,,,,space,6.447,space,4.46,0,4,4,4,1,Practice/Gargle_B.wav,2,2,SIMILAR,Practice,,,,,,,,,,,,,,,,,,,,,,,,,,,,,,,,,,,,
,,,,,,,,,,,,,,,,7,2021-10-14_09h34.11.900,Session1,2020.2.10,Win32,60,,,,,,,,,,,,,,,,,,,,,,,,,,,,,,,,,,SoundMST/Buzz.wav,2,3,NEW,A,space,8.839,2,1,1.522,0,0,0,0,1,,,,,,,,,,,,,,,,,,,,,,,,,,
,,,,,,,,,,,,,,,,7,2021-10-14_09h34.11.900,Session1,2020.2.10,Win32,60,,,,,,,,,,,,,,,,,,,,,,,,,,,,,,,,,,SoundMST/Writing_A.wav,2,3,NEW,A,,,2,1,0.418,0,1,1,1,1,,,,,,,,,,,,,,,,,,,,,,,,,,
,,,,,,,,,,,,,,,,7,2021-10-14_09h34.11.900,Session1,2020.2.10,Win32,60,,,,,,,,,,,,,,,,,,,,,,,,,,,,,,,,,,SoundMST/CarStart_E.wav,2,3,NEW,A,,,2,1,0.336,0,2,2,2,1,,,,,,,,,,,,,,,,,,,,,,,,,,
,,,,,,,,,,,,,,,,7,2021-10-14_09h34.11.900,Session1,2020.2.10,Win32,60,,,,,,,,,,,,,,,,,,,,,,,,,,,,,,,,,,SoundMST/Elephant_C.wav,2,3,NEW,A,,,2,1,0.036,0,3,3,3,1,,,,,,,,,,,,,,,,,,,,,,,,,,
,,,,,,,,,,,,,,,,7,2021-10-14_09h34.11.900,Session1,2020.2.10,Win32,60,,,,,,,,,,,,,,,,,,,,,,,,,,,,,,,,,,SoundMST/Puff_A.wav,2,3,NEW,A,,,2,1,0.734,0,4,4,4,1,,,,,,,,,,,,,,,,,,,,,,,,,,
,,,,,,,,,,,,,,,,7,2021-10-14_09h34.11.900,Session1,2020.2.10,Win32,60,,,,,,,,,,,,,,,,,,,,,,,,,,,,,,,,,,SoundMST/Trumpet_B.wav,2,3,NEW,A,,,2,1,0.419,0,5,5,5,1,,,,,,,,,,,,,,,,,,,,,,,,,,
,,,,,,,,,,,,,,,,7,2021-10-14_09h34.11.900,Session1,2020.2.10,Win32,60,,,,,,,,,,,,,,,,,,,,,,,,,,,,,,,,,,SoundMST/Heartbeat.wav,2,3,NEW,A,,,2,1,0.354,0,6,6,6,1,,,,,,,,,,,,,,,,,,,,,,,,,,
,,,,,,,,,,,,,,,,7,2021-10-14_09h34.11.900,Session1,2020.2.10,Win32,60,,,,,,,,,,,,,,,,,,,,,,,,,,,,,,,,,,SoundMST/Piano_D.wav,2,3,NEW,A,,,2,1,0.554,0,7,7,7,1,,,,,,,,,,,,,,,,,,,,,,,,,,
,,,,,,,,,,,,,,,,7,2021-10-14_09h34.11.900,Session1,2020.2.10,Win32,60,,,,,,,,,,,,,,,,,,,,,,,,,,,,,,,,,,SoundMST/Cello.wav,2,3,NEW,A,,,2,1,0.159,0,8,8,8,1,,,,,,,,,,,,,,,,,,,,,,,,,,
,,,,,,,,,,,,,,,,7,2021-10-14_09h34.11.900,Session1,2020.2.10,Win32,60,,,,,,,,,,,,,,,,,,,,,,,,,,,,,,,,,,SoundMST/Writing_C.wav,2,2,SIMILAR,A,,,2,1,0.853,0,9,9,9,1,,,,,,,,,,,,,,,,,,,,,,,,,,
,,,,,,,,,,,,,,,,7,2021-10-14_09h34.11.900,Session1,2020.2.10,Win32,60,,,,,,,,,,,,,,,,,,,,,,,,,,,,,,,,,,SoundMST/Buzz.wav,1,1,OLD,A,,,1,1,0.41,0,10,10,10,1,,,,,,,,,,,,,,,,,,,,,,,,,,
,,,,,,,,,,,,,,,,7,2021-10-14_09h34.11.900,Session1,2020.2.10,Win32,60,,,,,,,,,,,,,,,,,,,,,,,,,,,,,,,,,,SoundMST/Steam.wav,2,3,NEW,A,,,2,1,0.642,0,11,11,11,1,,,,,,,,,,,,,,,,,,,,,,,,,,
,,,,,,,,,,,,,,,,7,2021-10-14_09h34.11.900,Session1,2020.2.10,Win32,60,,,,,,,,,,,,,,,,,,,,,,,,,,,,,,,,,,SoundMST/Cuckoo_A.wav,2,3,NEW,A,,,2,1,0.122,0,12,12,12,1,,,,,,,,,,,,,,,,,,,,,,,,,,
,,,,,,,,,,,,,,,,7,2021-10-14_09h34.11.900,Session1,2020.2.10,Win32,60,,,,,,,,,,,,,,,,,,,,,,,,,,,,,,,,,,SoundMST/Chicken_A.wav,2,3,NEW,A,,,2,1,0.684,0,13,13,13,1,,,,,,,,,,,,,,,,,,,,,,,,,,
,,,,,,,,,,,,,,,,7,2021-10-14_09h34.11.900,Session1,2020.2.10,Win32,60,,,,,,,,,,,,,,,,,,,,,,,,,,,,,,,,,,SoundMST/Goat_C.wav,2,3,NEW,A,,,2,1,0.403,0,14,14,14,1,,,,,,,,,,,,,,,,,,,,,,,,,,
,,,,,,,,,,,,,,,,7,2021-10-14_09h34.11.900,Session1,2020.2.10,Win32,60,,,,,,,,,,,,,,,,,,,,,,,,,,,,,,,,,,SoundMST/CarStart_D.wav,2,2,SIMILAR,A,,,2,1,0.987,0,15,15,15,1,,,,,,,,,,,,,,,,,,,,,,,,,,
,,,,,,,,,,,,,,,,7,2021-10-14_09h34.11.900,Session1,2020.2.10,Win32,60,,,,,,,,,,,,,,,,,,,,,,,,,,,,,,,,,,SoundMST/Duck_B.wav,2,3,NEW,A,,,2,1,0.605,0,16,16,16,1,,,,,,,,,,,,,,,,,,,,,,,,,,
,,,,,,,,,,,,,,,,7,2021-10-14_09h34.11.900,Session1,2020.2.10,Win32,60,,,,,,,,,,,,,,,,,,,,,,,,,,,,,,,,,,SoundMST/Trumpet_C.wav,2,2,SIMILAR,A,,,2,1,1.556,0,17,17,17,1,,,,,,,,,,,,,,,,,,,,,,,,,,
,,,,,,,,,,,,,,,,7,2021-10-14_09h34.11.900,Session1,2020.2.10,Win32,60,,,,,,,,,,,,,,,,,,,,,,,,,,,,,,,,,,SoundMST/Cello.wav,1,1,OLD,A,,,1,1,1.304,0,18,18,18,1,,,,,,,,,,,,,,,,,,,,,,,,,,
,,,,,,,,,,,,,,,,7,2021-10-14_09h34.11.900,Session1,2020.2.10,Win32,60,,,,,,,,,,,,,,,,,,,,,,,,,,,,,,,,,,SoundMST/Camera.wav,2,3,NEW,A,,,2,1,1.084,0,19,19,19,1,,,,,,,,,,,,,,,,,,,,,,,,,,
,,,,,,,,,,,,,,,,7,2021-10-14_09h34.11.900,Session1,2020.2.10,Win32,60,,,,,,,,,,,,,,,,,,,,,,,,,,,,,,,,,,SoundMST/Puff_A.wav,1,1,OLD,A,,,1,1,0.701,0,20,20,20,1,,,,,,,,,,,,,,,,,,,,,,,,,,
,,,,,,,,,,,,,,,,7,2021-10-14_09h34.11.900,Session1,2020.2.10,Win32,60,,,,,,,,,,,,,,,,,,,,,,,,,,,,,,,,,,SoundMST/Heartbeat.wav,1,1,OLD,A,,,1,1,0.169,0,21,21,21,1,,,,,,,,,,,,,,,,,,,,,,,,,,
,,,,,,,,,,,,,,,,7,2021-10-14_09h34.11.900,Session1,2020.2.10,Win32,60,,,,,,,,,,,,,,,,,,,,,,,,,,,,,,,,,,SoundMST/Phone_F.wav,2,3,NEW,A,,,2,1,2.551,0,22,22,22,1,,,,,,,,,,,,,,,,,,,,,,,,,,
,,,,,,,,,,,,,,,,7,2021-10-14_09h34.11.900,Session1,2020.2.10,Win32,60,,,,,,,,,,,,,,,,,,,,,,,,,,,,,,,,,,SoundMST/Piano_C.wav,2,2,SIMILAR,A,,,2,1,0.869,0,23,23,23,1,,,,,,,,,,,,,,,,,,,,,,,,,,
,,,,,,,,,,,,,,,,7,2021-10-14_09h34.11.900,Session1,2020.2.10,Win32,60,,,,,,,,,,,,,,,,,,,,,,,,,,,,,,,,,,SoundMST/Snore_C.wav,2,3,NEW,A,,,2,1,0.187,0,24,24,24,1,,,,,,,,,,,,,,,,,,,,,,,,,,
,,,,,,,,,,,,,,,,7,2021-10-14_09h34.11.900,Session1,2020.2.10,Win32,60,,,,,,,,,,,,,,,,,,,,,,,,,,,,,,,,,,SoundMST/Chicken_A.wav,1,1,OLD,A,,,2,0,6.733,0,25,25,25,1,,,,,,,,,,,,,,,,,,,,,,,,,,
,,,,,,,,,,,,,,,,7,2021-10-14_09h34.11.900,Session1,2020.2.10,Win32,60,,,,,,,,,,,,,,,,,,,,,,,,,,,,,,,,,,SoundMST/Mosquito_B.wav,2,3,NEW,A,,,2,1,0.387,0,26,26,26,1,,,,,,,,,,,,,,,,,,,,,,,,,,
,,,,,,,,,,,,,,,,7,2021-10-14_09h34.11.900,Session1,2020.2.10,Win32,60,,,,,,,,,,,,,,,,,,,,,,,,,,,,,,,,,,SoundMST/Cough_I.wav,2,3,NEW,A,,,2,1,0.252,0,27,27,27,1,,,,,,,,,,,,,,,,,,,,,,,,,,
,,,,,,,,,,,,,,,,7,2021-10-14_09h34.11.900,Session1,2020.2.10,Win32,60,,,,,,,,,,,,,,,,,,,,,,,,,,,,,,,,,,SoundMST/Elephant_A.wav,2,2,SIMILAR,A,,,1,0,0.293,0,28,28,28,1,,,,,,,,,,,,,,,,,,,,,,,,,,
,,,,,,,,,,,,,,,,7,2021-10-14_09h34.11.900,Session1,2020.2.10,Win32,60,,,,,,,,,,,,,,,,,,,,,,,,,,,,,,,,,,SoundMST/Cuckoo_A.wav,1,1,OLD,A,,,2,0,1.1,0,29,29,29,1,,,,,,,,,,,,,,,,,,,,,,,,,,
,,,,,,,,,,,,,,,,7,2021-10-14_09h34.11.900,Session1,2020.2.10,Win32,60,,,,,,,,,,,,,,,,,,,,,,,,,,,,,,,,,,SoundMST/Baby_C.wav,2,3,NEW,A,,,2,1,0.691,0,30,30,30,1,,,,,,,,,,,,,,,,,,,,,,,,,,
,,,,,,,,,,,,,,,,7,2021-10-14_09h34.11.900,Session1,2020.2.10,Win32,60,,,,,,,,,,,,,,,,,,,,,,,,,,,,,,,,,,SoundMST/Duck_A.wav,2,2,SIMILAR,A,,,2,1,0.874,0,31,31,31,1,,,,,,,,,,,,,,,,,,,,,,,,,,
,,,,,,,,,,,,,,,,7,2021-10-14_09h34.11.900,Session1,2020.2.10,Win32,60,,,,,,,,,,,,,,,,,,,,,,,,,,,,,,,,,,SoundMST/Chime_D.wav,2,3,NEW,A,,,2,1,0.186,0,32,32,32,1,,,,,,,,,,,,,,,,,,,,,,,,,,
,,,,,,,,,,,,,,,,7,2021-10-14_09h34.11.900,Session1,2020.2.10,Win32,60,,,,,,,,,,,,,,,,,,,,,,,,,,,,,,,,,,SoundMST/Faucet_A.wav,2,3,NEW,A,,,2,1,0.573,0,33,33,33,1,,,,,,,,,,,,,,,,,,,,,,,,,,
,,,,,,,,,,,,,,,,7,2021-10-14_09h34.11.900,Session1,2020.2.10,Win32,60,,,,,,,,,,,,,,,,,,,,,,,,,,,,,,,,,,SoundMST/Camera.wav,1,1,OLD,A,,,2,0,0.822,0,34,34,34,1,,,,,,,,,,,,,,,,,,,,,,,,,,
,,,,,,,,,,,,,,,,7,2021-10-14_09h34.11.900,Session1,2020.2.10,Win32,60,,,,,,,,,,,,,,,,,,,,,,,,,,,,,,,,,,SoundMST/Bird_C.wav,2,3,NEW,A,,,2,1,0.324,0,35,35,35,1,,,,,,,,,,,,,,,,,,,,,,,,,,
,,,,,,,,,,,,,,,,7,2021-10-14_09h34.11.900,Session1,2020.2.10,Win32,60,,,,,,,,,,,,,,,,,,,,,,,,,,,,,,,,,,SoundMST/Steam.wav,1,1,OLD,A,,,1,1,2.441,0,36,36,36,1,,,,,,,,,,,,,,,,,,,,,,,,,,
,,,,,,,,,,,,,,,,7,2021-10-14_09h34.11.900,Session1,2020.2.10,Win32,60,,,,,,,,,,,,,,,,,,,,,,,,,,,,,,,,,,SoundMST/Phone_E.wav,2,2,SIMILAR,A,,,2,1,2.884,0,37,37,37,1,,,,,,,,,,,,,,,,,,,,,,,,,,
,,,,,,,,,,,,,,,,7,2021-10-14_09h34.11.900,Session1,2020.2.10,Win32,60,,,,,,,,,,,,,,,,,,,,,,,,,,,,,,,,,,SoundMST/Snore_E.wav,2,2,SIMILAR,A,,,2,1,3.102,0,38,38,38,1,,,,,,,,,,,,,,,,,,,,,,,,,,
,,,,,,,,,,,,,,,,7,2021-10-14_09h34.11.900,Session1,2020.2.10,Win32,60,,,,,,,,,,,,,,,,,,,,,,,,,,,,,,,,,,SoundMST/Goat_C.wav,1,1,OLD,A,,,2,0,1.353,0,39,39,39,1,,,,,,,,,,,,,,,,,,,,,,,,,,
,,,,,,,,,,,,,,,,7,2021-10-14_09h34.11.900,Session1,2020.2.10,Win32,60,,,,,,,,,,,,,,,,,,,,,,,,,,,,,,,,,,SoundMST/Chime_A.wav,2,2,SIMILAR,A,,,1,0,0.234,0,40,40,40,1,,,,,,,,,,,,,,,,,,,,,,,,,,
,,,,,,,,,,,,,,,,7,2021-10-14_09h34.11.900,Session1,2020.2.10,Win32,60,,,,,,,,,,,,,,,,,,,,,,,,,,,,,,,,,,SoundMST/Faucet_C.wav,2,2,SIMILAR,A,,,1,0,0.642,0,41,41,41,1,,,,,,,,,,,,,,,,,,,,,,,,,,
,,,,,,,,,,,,,,,,7,2021-10-14_09h34.11.900,Session1,2020.2.10,Win32,60,,,,,,,,,,,,,,,,,,,,,,,,,,,,,,,,,,SoundMST/Bullfrog.wav,2,3,NEW,A,,,2,1,0.257,0,42,42,42,1,,,,,,,,,,,,,,,,,,,,,,,,,,
,,,,,,,,,,,,,,,,7,2021-10-14_09h34.11.900,Session1,2020.2.10,Win32,60,,,,,,,,,,,,,,,,,,,,,,,,,,,,,,,,,,SoundMST/Mosquito_B.wav,1,1,OLD,A,,,1,1,0.518,0,43,43,43,1,,,,,,,,,,,,,,,,,,,,,,,,,,
,,,,,,,,,,,,,,,,7,2021-10-14_09h34.11.900,Session1,2020.2.10,Win32,60,,,,,,,,,,,,,,,,,,,,,,,,,,,,,,,,,,SoundMST/Guitar_B.wav,2,3,NEW,A,,,2,1,0.076,0,44,44,44,1,,,,,,,,,,,,,,,,,,,,,,,,,,
,,,,,,,,,,,,,,,,7,2021-10-14_09h34.11.900,Session1,2020.2.10,Win32,60,,,,,,,,,,,,,,,,,,,,,,,,,,,,,,,,,,SoundMST/Baby_B.wav,2,2,SIMILAR,A,,,1,0,2.772,0,45,45,45,1,,,,,,,,,,,,,,,,,,,,,,,,,,
,,,,,,,,,,,,,,,,7,2021-10-14_09h34.11.900,Session1,2020.2.10,Win32,60,,,,,,,,,,,,,,,,,,,,,,,,,,,,,,,,,,SoundMST/Sleighbells_B.wav,2,3,NEW,A,,,2,1,0.435,0,46,46,46,1,,,,,,,,,,,,,,,,,,,,,,,,,,
,,,,,,,,,,,,,,,,7,2021-10-14_09h34.11.900,Session1,2020.2.10,Win32,60,,,,,,,,,,,,,,,,,,,,,,,,,,,,,,,,,,SoundMST/Cat_A.wav,2,3,NEW,A,,,2,1,1.085,0,47,47,47,1,,,,,,,,,,,,,,,,,,,,,,,,,,
,,,,,,,,,,,,,,,,7,2021-10-14_09h34.11.900,Session1,2020.2.10,Win32,60,,,,,,,,,,,,,,,,,,,,,,,,,,,,,,,,,,SoundMST/Airhorn.wav,2,3,NEW,A,,,2,1,0.419,0,48,48,48,1,,,,,,,,,,,,,,,,,,,,,,,,,,
,,,,,,,,,,,,,,,,7,2021-10-14_09h34.11.900,Session1,2020.2.10,Win32,60,,,,,,,,,,,,,,,,,,,,,,,,,,,,,,,,,,SoundMST/Bird_A.wav,2,2,SIMILAR,A,,,2,1,2.309,0,49,49,49,1,,,,,,,,,,,,,,,,,,,,,,,,,,
,,,,,,,,,,,,,,,,7,2021-10-14_09h34.11.900,Session1,2020.2.10,Win32,60,,,,,,,,,,,,,,,,,,,,,,,,,,,,,,,,,,SoundMST/Laugh_A.wav,2,3,NEW,A,,,2,1,0.353,0,50,50,50,1,,,,,,,,,,,,,,,,,,,,,,,,,,
,,,,,,,,,,,,,,,,7,2021-10-14_09h34.11.900,Session1,2020.2.10,Win32,60,,,,,,,,,,,,,,,,,,,,,,,,,,,,,,,,,,SoundMST/Dog_H.wav,2,3,NEW,A,,,2,1,0.301,0,51,51,51,1,,,,,,,,,,,,,,,,,,,,,,,,,,
,,,,,,,,,,,,,,,,7,2021-10-14_09h34.11.900,Session1,2020.2.10,Win32,60,,,,,,,,,,,,,,,,,,,,,,,,,,,,,,,,,,SoundMST/Cough_J.wav,2,2,SIMILAR,A,,,1,0,0.619,0,52,52,52,1,,,,,,,,,,,,,,,,,,,,,,,,,,
,,,,,,,,,,,,,,,,7,2021-10-14_09h34.11.900,Session1,2020.2.10,Win32,60,,,,,,,,,,,,,,,,,,,,,,,,,,,,,,,,,,SoundMST/Donkey.wav,2,3,NEW,A,,,2,1,0.66,0,53,53,53,1,,,,,,,,,,,,,,,,,,,,,,,,,,
,,,,,,,,,,,,,,,,7,2021-10-14_09h34.11.900,Session1,2020.2.10,Win32,60,,,,,,,,,,,,,,,,,,,,,,,,,,,,,,,,,,SoundMST/Slurp.wav,2,3,NEW,A,,,2,1,0.568,0,54,54,54,1,,,,,,,,,,,,,,,,,,,,,,,,,,
,,,,,,,,,,,,,,,,7,2021-10-14_09h34.11.900,Session1,2020.2.10,Win32,60,,,,,,,,,,,,,,,,,,,,,,,,,,,,,,,,,,SoundMST/Airhorn.wav,1,1,OLD,A,,,1,1,0.453,0,55,55,55,1,,,,,,,,,,,,,,,,,,,,,,,,,,
,,,,,,,,,,,,,,,,7,2021-10-14_09h34.11.900,Session1,2020.2.10,Win32,60,,,,,,,,,,,,,,,,,,,,,,,,,,,,,,,,,,SoundMST/Cat_A.wav,1,1,OLD,A,,,1,1,0.734,0,56,56,56,1,,,,,,,,,,,,,,,,,,,,,,,,,,
,,,,,,,,,,,,,,,,7,2021-10-14_09h34.11.900,Session1,2020.2.10,Win32,60,,,,,,,,,,,,,,,,,,,,,,,,,,,,,,,,,,SoundMST/Hammer_A.wav,2,3,NEW,A,,,2,1,4.017,0,57,57,57,1,,,,,,,,,,,,,,,,,,,,,,,,,,
,,,,,,,,,,,,,,,,7,2021-10-14_09h34.11.900,Session1,2020.2.10,Win32,60,,,,,,,,,,,,,,,,,,,,,,,,,,,,,,,,,,SoundMST/Guitar_B.wav,1,1,OLD,A,,,1,1,0.035,0,58,58,58,1,,,,,,,,,,,,,,,,,,,,,,,,,,
,,,,,,,,,,,,,,,,7,2021-10-14_09h34.11.900,Session1,2020.2.10,Win32,60,,,,,,,,,,,,,,,,,,,,,,,,,,,,,,,,,,SoundMST/Howl.wav,2,3,NEW,A,,,2,1,0.241,0,59,59,59,1,,,,,,,,,,,,,,,,,,,,,,,,,,
,,,,,,,,,,,,,,,,7,2021-10-14_09h34.11.900,Session1,2020.2.10,Win32,60,,,,,,,,,,,,,,,,,,,,,,,,,,,,,,,,,,SoundMST/Bullfrog.wav,1,1,OLD,A,,,1,1,0.225,0,60,60,60,1,,,,,,,,,,,,,,,,,,,,,,,,,,
,,,,,,,,,,,,,,,,7,2021-10-14_09h34.11.900,Session1,2020.2.10,Win32,60,,,,,,,,,,,,,,,,,,,,,,,,,,,,,,,,,,SoundMST/Printer.wav,2,3,NEW,A,,,2,1,2.976,0,61,61,61,1,,,,,,,,,,,,,,,,,,,,,,,,,,
,,,,,,,,,,,,,,,,7,2021-10-14_09h34.11.900,Session1,2020.2.10,Win32,60,,,,,,,,,,,,,,,,,,,,,,,,,,,,,,,,,,SoundMST/Horse.wav,2,3,NEW,A,,,2,1,0.203,0,62,62,62,1,,,,,,,,,,,,,,,,,,,,,,,,,,
,,,,,,,,,,,,,,,,7,2021-10-14_09h34.11.900,Session1,2020.2.10,Win32,60,,,,,,,,,,,,,,,,,,,,,,,,,,,,,,,,,,SoundMST/Airplane_B.wav,2,3,NEW,A,,,2,1,0.418,0,63,63,63,1,,,,,,,,,,,,,,,,,,,,,,,,,,
,,,,,,,,,,,,,,,,7,2021-10-14_09h34.11.900,Session1,2020.2.10,Win32,60,,,,,,,,,,,,,,,,,,,,,,,,,,,,,,,,,,SoundMST/Pour_F.wav,2,3,NEW,A,,,2,1,1.585,0,64,64,64,1,,,,,,,,,,,,,,,,,,,,,,,,,,
,,,,,,,,,,,,,,,,7,2021-10-14_09h34.11.900,Session1,2020.2.10,Win32,60,,,,,,,,,,,,,,,,,,,,,,,,,,,,,,,,,,SoundMST/Dog_I.wav,2,2,SIMILAR,A,,,2,1,0.202,0,65,65,65,1,,,,,,,,,,,,,,,,,,,,,,,,,,
,,,,,,,,,,,,,,,,7,2021-10-14_09h34.11.900,Session1,2020.2.10,Win32,60,,,,,,,,,,,,,,,,,,,,,,,,,,,,,,,,,,SoundMST/Donkey.wav,1,1,OLD,A,,,1,1,0.388,0,66,66,66,1,,,,,,,,,,,,,,,,,,,,,,,,,,
,,,,,,,,,,,,,,,,7,2021-10-14_09h34.11.900,Session1,2020.2.10,Win32,60,,,,,,,,,,,,,,,,,,,,,,,,,,,,,,,,,,SoundMST/Slurp.wav,1,1,OLD,A,,,1,1,0.371,0,67,67,67,1,,,,,,,,,,,,,,,,,,,,,,,,,,
,,,,,,,,,,,,,,,,7,2021-10-14_09h34.11.900,Session1,2020.2.10,Win32,60,,,,,,,,,,,,,,,,,,,,,,,,,,,,,,,,,,SoundMST/HairDryer_A.wav,2,3,NEW,A,,,2,1,0.307,0,68,68,68,1,,,,,,,,,,,,,,,,,,,,,,,,,,
,,,,,,,,,,,,,,,,7,2021-10-14_09h34.11.900,Session1,2020.2.10,Win32,60,,,,,,,,,,,,,,,,,,,,,,,,,,,,,,,,,,SoundMST/Thunder_A.wav,2,3,NEW,A,,,2,1,0.118,0,69,69,69,1,,,,,,,,,,,,,,,,,,,,,,,,,,
,,,,,,,,,,,,,,,,7,2021-10-14_09h34.11.900,Session1,2020.2.10,Win32,60,,,,,,,,,,,,,,,,,,,,,,,,,,,,,,,,,,SoundMST/Sleighbells_B.wav,1,1,OLD,A,,,1,1,0.388,0,70,70,70,1,,,,,,,,,,,,,,,,,,,,,,,,,,
,,,,,,,,,,,,,,,,7,2021-10-14_09h34.11.900,Session1,2020.2.10,Win32,60,,,,,,,,,,,,,,,,,,,,,,,,,,,,,,,,,,SoundMST/Laugh_D.wav,2,2,SIMILAR,A,,,2,1,1.67,0,71,71,71,1,,,,,,,,,,,,,,,,,,,,,,,,,,
,,,,,,,,,,,,,,,,7,2021-10-14_09h34.11.900,Session1,2020.2.10,Win32,60,,,,,,,,,,,,,,,,,,,,,,,,,,,,,,,,,,SoundMST/Toilet_B.wav,2,3,NEW,A,,,2,1,0.485,0,72,72,72,1,,,,,,,,,,,,,,,,,,,,,,,,,,
,,,,,,,,,,,,,,,,7,2021-10-14_09h34.11.900,Session1,2020.2.10,Win32,60,,,,,,,,,,,,,,,,,,,,,,,,,,,,,,,,,,SoundMST/Howl.wav,1,1,OLD,A,,,1,1,0.136,0,73,73,73,1,,,,,,,,,,,,,,,,,,,,,,,,,,
,,,,,,,,,,,,,,,,7,2021-10-14_09h34.11.900,Session1,2020.2.10,Win32,60,,,,,,,,,,,,,,,,,,,,,,,,,,,,,,,,,,SoundMST/Footsteps_C.wav,2,3,NEW,A,,,2,1,0.835,0,74,74,74,1,,,,,,,,,,,,,,,,,,,,,,,,,,
,,,,,,,,,,,,,,,,7,2021-10-14_09h34.11.900,Session1,2020.2.10,Win32,60,,,,,,,,,,,,,,,,,,,,,,,,,,,,,,,,,,SoundMST/Cup.wav,2,3,NEW,A,,,2,1,1.119,0,75,75,75,1,,,,,,,,,,,,,,,,,,,,,,,,,,
,,,,,,,,,,,,,,,,7,2021-10-14_09h34.11.900,Session1,2020.2.10,Win32,60,,,,,,,,,,,,,,,,,,,,,,,,,,,,,,,,,,SoundMST/Pour_C.wav,2,2,SIMILAR,A,,,1,0,1.552,0,76,76,76,1,,,,,,,,,,,,,,,,,,,,,,,,,,
,,,,,,,,,,,,,,,,7,2021-10-14_09h34.11.900,Session1,2020.2.10,Win32,60,,,,,,,,,,,,,,,,,,,,,,,,,,,,,,,,,,SoundMST/Sneeze_B.wav,2,3,NEW,A,,,1,0,3.386,0,77,77,77,1,,,,,,,,,,,,,,,,,,,,,,,,,,
,,,,,,,,,,,,,,,,7,2021-10-14_09h34.11.900,Session1,2020.2.10,Win32,60,,,,,,,,,,,,,,,,,,,,,,,,,,,,,,,,,,SoundMST/Airplane_B.wav,1,1,OLD,A,,,1,1,0.257,0,78,78,78,1,,,,,,,,,,,,,,,,,,,,,,,,,,
,,,,,,,,,,,,,,,,7,2021-10-14_09h34.11.900,Session1,2020.2.10,Win32,60,,,,,,,,,,,,,,,,,,,,,,,,,,,,,,,,,,SoundMST/HairDryer_A.wav,1,1,OLD,A,,,1,1,0.054,0,79,79,79,1,,,,,,,,,,,,,,,,,,,,,,,,,,
,,,,,,,,,,,,,,,,7,2021-10-14_09h34.11.900,Session1,2020.2.10,Win32,60,,,,,,,,,,,,,,,,,,,,,,,,,,,,,,,,,,SoundMST/Hammer_A.wav,1,1,OLD,A,,,1,1,0.384,0,80,80,80,1,,,,,,,,,,,,,,,,,,,,,,,,,,
,,,,,,,,,,,,,,,,7,2021-10-14_09h34.11.900,Session1,2020.2.10,Win32,60,,,,,,,,,,,,,,,,,,,,,,,,,,,,,,,,,,SoundMST/Printer.wav,1,1,OLD,A,,,1,1,0.402,0,81,81,81,1,,,,,,,,,,,,,,,,,,,,,,,,,,
,,,,,,,,,,,,,,,,7,2021-10-14_09h34.11.900,Session1,2020.2.10,Win32,60,,,,,,,,,,,,,,,,,,,,,,,,,,,,,,,,,,SoundMST/Thunder_A.wav,1,1,OLD,A,,,1,1,0.019,0,82,82,82,1,,,,,,,,,,,,,,,,,,,,,,,,,,
,,,,,,,,,,,,,,,,7,2021-10-14_09h34.11.900,Session1,2020.2.10,Win32,60,,,,,,,,,,,,,,,,,,,,,,,,,,,,,,,,,,SoundMST/Cow.wav,2,3,NEW,A,,,2,1,1.435,0,83,83,83,1,,,,,,,,,,,,,,,,,,,,,,,,,,
,,,,,,,,,,,,,,,,7,2021-10-14_09h34.11.900,Session1,2020.2.10,Win32,60,,,,,,,,,,,,,,,,,,,,,,,,,,,,,,,,,,SoundMST/Cup.wav,1,1,OLD,A,,,2,0,1.085,0,84,84,84,1,,,,,,,,,,,,,,,,,,,,,,,,,,
,,,,,,,,,,,,,,,,7,2021-10-14_09h34.11.900,Session1,2020.2.10,Win32,60,,,,,,,,,,,,,,,,,,,,,,,,,,,,,,,,,,SoundMST/Growl_H.wav,2,3,NEW,A,,,2,1,0.205,0,85,85,85,1,,,,,,,,,,,,,,,,,,,,,,,,,,
,,,,,,,,,,,,,,,,7,2021-10-14_09h34.11.900,Session1,2020.2.10,Win32,60,,,,,,,,,,,,,,,,,,,,,,,,,,,,,,,,,,SoundMST/Horse.wav,1,1,OLD,A,,,1,1,2.891,0,86,86,86,1,,,,,,,,,,,,,,,,,,,,,,,,,,
,,,,,,,,,,,,,,,,7,2021-10-14_09h34.11.900,Session1,2020.2.10,Win32,60,,,,,,,,,,,,,,,,,,,,,,,,,,,,,,,,,,SoundMST/Footsteps_F.wav,2,2,SIMILAR,A,,,1,0,0.172,0,87,87,87,1,,,,,,,,,,,,,,,,,,,,,,,,,,
,,,,,,,,,,,,,,,,7,2021-10-14_09h34.11.900,Session1,2020.2.10,Win32,60,,,,,,,,,,,,,,,,,,,,,,,,,,,,,,,,,,SoundMST/DialTone.wav,2,3,NEW,A,,,2,1,0.872,0,88,88,88,1,,,,,,,,,,,,,,,,,,,,,,,,,,
,,,,,,,,,,,,,,,,7,2021-10-14_09h34.11.900,Session1,2020.2.10,Win32,60,,,,,,,,,,,,,,,,,,,,,,,,,,,,,,,,,,SoundMST/Sneeze_B.wav,1,1,OLD,A,,,1,1,1.518,0,89,89,89,1,,,,,,,,,,,,,,,,,,,,,,,,,,
,,,,,,,,,,,,,,,,7,2021-10-14_09h34.11.900,Session1,2020.2.10,Win32,60,,,,,,,,,,,,,,,,,,,,,,,,,,,,,,,,,,SoundMST/Typing.wav,2,3,NEW,A,,,2,1,0.776,0,90,90,90,1,,,,,,,,,,,,,,,,,,,,,,,,,,
,,,,,,,,,,,,,,,,7,2021-10-14_09h34.11.900,Session1,2020.2.10,Win32,60,,,,,,,,,,,,,,,,,,,,,,,,,,,,,,,,,,SoundMST/Clap_A.wav,2,3,NEW,A,,,2,1,0.42,0,91,91,91,1,,,,,,,,,,,,,,,,,,,,,,,,,,
,,,,,,,,,,,,,,,,7,2021-10-14_09h34.11.900,Session1,2020.2.10,Win32,60,,,,,,,,,,,,,,,,,,,,,,,,,,,,,,,,,,SoundMST/Cow.wav,1,1,OLD,A,,,1,1,0.56,0,92,92,92,1,,,,,,,,,,,,,,,,,,,,,,,,,,
,,,,,,,,,,,,,,,,7,2021-10-14_09h34.11.900,Session1,2020.2.10,Win32,60,,,,,,,,,,,,,,,,,,,,,,,,,,,,,,,,,,SoundMST/Droplet_B.wav,2,3,NEW,A,,,2,1,1.919,0,93,93,93,1,,,,,,,,,,,,,,,,,,,,,,,,,,
,,,,,,,,,,,,,,,,7,2021-10-14_09h34.11.900,Session1,2020.2.10,Win32,60,,,,,,,,,,,,,,,,,,,,,,,,,,,,,,,,,,SoundMST/Toilet_B.wav,1,1,OLD,A,,,1,1,0.053,0,94,94,94,1,,,,,,,,,,,,,,,,,,,,,,,,,,
,,,,,,,,,,,,,,,,7,2021-10-14_09h34.11.900,Session1,2020.2.10,Win32,60,,,,,,,,,,,,,,,,,,,,,,,,,,,,,,,,,,SoundMST/Wind_B.wav,2,3,NEW,A,,,2,1,0.552,0,95,95,95,1,,,,,,,,,,,,,,,,,,,,,,,,,,
,,,,,,,,,,,,,,,,7,2021-10-14_09h34.11.900,Session1,2020.2.10,Win32,60,,,,,,,,,,,,,,,,,,,,,,,,,,,,,,,,,,SoundMST/Whistle_B.wav,2,3,NEW,A,,,2,1,1.369,0,96,96,96,1,,,,,,,,,,,,,,,,,,,,,,,,,,
,,,,,,,,,,,,,,,,7,2021-10-14_09h34.11.900,Session1,2020.2.10,Win32,60,,,,,,,,,,,,,,,,,,,,,,,,,,,,,,,,,,SoundMST/DialTone.wav,1,1,OLD,A,,,1,1,0.27,0,97,97,97,1,,,,,,,,,,,,,,,,,,,,,,,,,,
,,,,,,,,,,,,,,,,7,2021-10-14_09h34.11.900,Session1,2020.2.10,Win32,60,,,,,,,,,,,,,,,,,,,,,,,,,,,,,,,,,,SoundMST/Fireworks.wav,2,3,NEW,A,,,2,1,0.552,0,98,98,98,1,,,,,,,,,,,,,,,,,,,,,,,,,,
,,,,,,,,,,,,,,,,7,2021-10-14_09h34.11.900,Session1,2020.2.10,Win32,60,,,,,,,,,,,,,,,,,,,,,,,,,,,,,,,,,,SoundMST/Growl_H.wav,1,1,OLD,A,,,1,1,0.253,0,99,99,99,1,,,,,,,,,,,,,,,,,,,,,,,,,,
,,,,,,,,,,,,,,,,7,2021-10-14_09h34.11.900,Session1,2020.2.10,Win32,60,,,,,,,,,,,,,,,,,,,,,,,,,,,,,,,,,,SoundMST/Typing.wav,1,1,OLD,A,,,1,1,0.345,0,100,100,100,1,,,,,,,,,,,,,,,,,,,,,,,,,,
,,,,,,,,,,,,,,,,7,2021-10-14_09h34.11.900,Session1,2020.2.10,Win32,60,,,,,,,,,,,,,,,,,,,,,,,,,,,,,,,,,,SoundMST/Bagpipe.wav,2,3,NEW,A,,,2,1,0.135,0,101,101,101,1,,,,,,,,,,,,,,,,,,,,,,,,,,
,,,,,,,,,,,,,,,,7,2021-10-14_09h34.11.900,Session1,2020.2.10,Win32,60,,,,,,,,,,,,,,,,,,,,,,,,,,,,,,,,,,SoundMST/Siren_E.wav,2,3,NEW,A,,,2,1,1.95,0,102,102,102,1,,,,,,,,,,,,,,,,,,,,,,,,,,
,,,,,,,,,,,,,,,,7,2021-10-14_09h34.11.900,Session1,2020.2.10,Win32,60,,,,,,,,,,,,,,,,,,,,,,,,,,,,,,,,,,SoundMST/Droplet_B.wav,1,1,OLD,A,,,1,1,0.505,0,103,103,103,1,,,,,,,,,,,,,,,,,,,,,,,,,,
,,,,,,,,,,,,,,,,7,2021-10-14_09h34.11.900,Session1,2020.2.10,Win32,60,,,,,,,,,,,,,,,,,,,,,,,,,,,,,,,,,,SoundMST/Wind_B.wav,1,1,OLD,A,,,1,1,4.251,0,104,104,104,1,,,,,,,,,,,,,,,,,,,,,,,,,,
,,,,,,,,,,,,,,,,7,2021-10-14_09h34.11.900,Session1,2020.2.10,Win32,60,,,,,,,,,,,,,,,,,,,,,,,,,,,,,,,,,,SoundMST/IceDrop.wav,2,3,NEW,A,,,2,1,1.952,0,105,105,105,1,,,,,,,,,,,,,,,,,,,,,,,,,,
,,,,,,,,,,,,,,,,7,2021-10-14_09h34.11.900,Session1,2020.2.10,Win32,60,,,,,,,,,,,,,,,,,,,,,,,,,,,,,,,,,,SoundMST/Clap_D.wav,2,2,SIMILAR,A,,,2,1,1.367,0,106,106,106,1,,,,,,,,,,,,,,,,,,,,,,,,,,
,,,,,,,,,,,,,,,,7,2021-10-14_09h34.11.900,Session1,2020.2.10,Win32,60,,,,,,,,,,,,,,,,,,,,,,,,,,,,,,,,,,SoundMST/PaperRip.wav,2,3,NEW,A,,,2,1,1.168,0,107,107,107,1,,,,,,,,,,,,,,,,,,,,,,,,,,
,,,,,,,,,,,,,,,,7,2021-10-14_09h34.11.900,Session1,2020.2.10,Win32,60,,,,,,,,,,,,,,,,,,,,,,,,,,,,,,,,,,SoundMST/Chomp_A.wav,2,3,NEW,A,,,2,1,1.268,0,108,108,108,1,,,,,,,,,,,,,,,,,,,,,,,,,,
,,,,,,,,,,,,,,,,7,2021-10-14_09h34.11.900,Session1,2020.2.10,Win32,60,,,,,,,,,,,,,,,,,,,,,,,,,,,,,,,,,,SoundMST/Whistle_C.wav,2,2,SIMILAR,A,,,1,0,0.887,0,109,109,109,1,,,,,,,,,,,,,,,,,,,,,,,,,,
,,,,,,,,,,,,,,,,7,2021-10-14_09h34.11.900,Session1,2020.2.10,Win32,60,,,,,,,,,,,,,,,,,,,,,,,,,,,,,,,,,,SoundMST/Fireworks.wav,1,1,OLD,A,,,1,1,0.535,0,110,110,110,1,,,,,,,,,,,,,,,,,,,,,,,,,,
,,,,,,,,,,,,,,,,7,2021-10-14_09h34.11.900,Session1,2020.2.10,Win32,60,,,,,,,,,,,,,,,,,,,,,,,,,,,,,,,,,,SoundMST/Crow_A.wav,2,3,NEW,A,,,2,1,1.222,0,111,111,111,1,,,,,,,,,,,,,,,,,,,,,,,,,,
,,,,,,,,,,,,,,,,7,2021-10-14_09h34.11.900,Session1,2020.2.10,Win32,60,,,,,,,,,,,,,,,,,,,,,,,,,,,,,,,,,,SoundMST/Bagpipe.wav,1,1,OLD,A,,,1,1,0.693,0,112,112,112,1,,,,,,,,,,,,,,,,,,,,,,,,,,
,,,,,,,,,,,,,,,,7,2021-10-14_09h34.11.900,Session1,2020.2.10,Win32,60,,,,,,,,,,,,,,,,,,,,,,,,,,,,,,,,,,SoundMST/Bowlingpins.wav,2,3,NEW,A,,,2,1,0.837,0,113,113,113,1,,,,,,,,,,,,,,,,,,,,,,,,,,
,,,,,,,,,,,,,,,,7,2021-10-14_09h34.11.900,Session1,2020.2.10,Win32,60,,,,,,,,,,,,,,,,,,,,,,,,,,,,,,,,,,SoundMST/Siren_A.wav,2,2,SIMILAR,A,,,2,1,1.307,0,114,114,114,1,,,,,,,,,,,,,,,,,,,,,,,,,,
,,,,,,,,,,,,,,,,7,2021-10-14_09h34.11.900,Session1,2020.2.10,Win32,60,,,,,,,,,,,,,,,,,,,,,,,,,,,,,,,,,,SoundMST/ManWhistle.wav,2,3,NEW,A,,,2,1,0.923,0,115,115,115,1,,,,,,,,,,,,,,,,,,,,,,,,,,
,,,,,,,,,,,,,,,,7,2021-10-14_09h34.11.900,Session1,2020.2.10,Win32,60,,,,,,,,,,,,,,,,,,,,,,,,,,,,,,,,,,SoundMST/Coin_D.wav,2,3,NEW,A,,,2,1,0.867,0,116,116,116,1,,,,,,,,,,,,,,,,,,,,,,,,,,
,,,,,,,,,,,,,,,,7,2021-10-14_09h34.11.900,Session1,2020.2.10,Win32,60,,,,,,,,,,,,,,,,,,,,,,,,,,,,,,,,,,SoundMST/PaperRip.wav,1,1,OLD,A,,,1,1,1.521,0,117,117,117,1,,,,,,,,,,,,,,,,,,,,,,,,,,
,,,,,,,,,,,,,,,,7,2021-10-14_09h34.11.900,Session1,2020.2.10,Win32,60,,,,,,,,,,,,,,,,,,,,,,,,,,,,,,,,,,SoundMST/Helicopter_A.wav,2,3,NEW,A,,,2,1,0.672,0,118,118,118,1,,,,,,,,,,,,,,,,,,,,,,,,,,
,,,,,,,,,,,,,,,,7,2021-10-14_09h34.11.900,Session1,2020.2.10,Win32,60,,,,,,,,,,,,,,,,,,,,,,,,,,,,,,,,,,SoundMST/Bubbles_A.wav,2,3,NEW,A,,,2,1,1.003,0,119,119,119,1,,,,,,,,,,,,,,,,,,,,,,,,,,
,,,,,,,,,,,,,,,,7,2021-10-14_09h34.11.900,Session1,2020.2.10,Win32,60,,,,,,,,,,,,,,,,,,,,,,,,,,,,,,,,,,SoundMST/Chomp_C.wav,2,2,SIMILAR,A,,,1,0,6.785,0,120,120,120,1,,,,,,,,,,,,,,,,,,,,,,,,,,
,,,,,,,,,,,,,,,,7,2021-10-14_09h34.11.900,Session1,2020.2.10,Win32,60,,,,,,,,,,,,,,,,,,,,,,,,,,,,,,,,,,SoundMST/Crow_A.wav,1,1,OLD,A,,,1,1,0.558,0,121,121,121,1,,,,,,,,,,,,,,,,,,,,,,,,,,
,,,,,,,,,,,,,,,,7,2021-10-14_09h34.11.900,Session1,2020.2.10,Win32,60,,,,,,,,,,,,,,,,,,,,,,,,,,,,,,,,,,SoundMST/IceDrop.wav,1,1,OLD,A,,,1,1,0.403,0,122,122,122,1,,,,,,,,,,,,,,,,,,,,,,,,,,
,,,,,,,,,,,,,,,,7,2021-10-14_09h34.11.900,Session1,2020.2.10,Win32,60,,,,,,,,,,,,,,,,,,,,,,,,,,,,,,,,,,SoundMST/ManWhistle_E.wav,2,2,SIMILAR,A,,,2,1,1.953,0,123,123,123,1,,,,,,,,,,,,,,,,,,,,,,,,,,
,,,,,,,,,,,,,,,,7,2021-10-14_09h34.11.900,Session1,2020.2.10,Win32,60,,,,,,,,,,,,,,,,,,,,,,,,,,,,,,,,,,SoundMST/Helicopter_A.wav,1,1,OLD,A,,,1,1,0.471,0,124,124,124,1,,,,,,,,,,,,,,,,,,,,,,,,,,
,,,,,,,,,,,,,,,,7,2021-10-14_09h34.11.900,Session1,2020.2.10,Win32,60,,,,,,,,,,,,,,,,,,,,,,,,,,,,,,,,,,SoundMST/Bowlingpins.wav,1,1,OLD,A,,,1,1,0.134,0,125,125,125,1,,,,,,,,,,,,,,,,,,,,,,,,,,
,,,,,,,,,,,,,,,,7,2021-10-14_09h34.11.900,Session1,2020.2.10,Win32,60,,,,,,,,,,,,,,,,,,,,,,,,,,,,,,,,,,SoundMST/Coin_E.wav,2,2,SIMILAR,A,,,1,0,0.802,0,126,126,126,1,,,,,,,,,,,,,,,,,,,,,,,,,,
,,,,,,,,,,,,,,,,7,2021-10-14_09h34.11.900,Session1,2020.2.10,Win32,60,,,,,,,,,,,,,,,,,,,,,,,,,,,,,,,,,,SoundMST/Bubbles_B.wav,2,2,SIMILAR,A,,,1,0,2.788,0,127,127,127,1,,,,,,,,,,,,,,,,,,,,,,,,,,
,,,,,,,,,,,,,,,,7,2021-10-14_09h34.11.900,Session1,2020.2.10,Win32,60,,,,,,,,,,,,,,,,,,,,,,,,,,,,,,,,,,,,,,,,,,,,,,,,,0,0,0,0,1,,,,,,,,,,,,,,,,,,,,,
,,,,,,,,,,,,,,,,7,2021-10-14_09h34.11.900,Session1,2020.2.10,Win32,60,,,,,,,,,,,,,,,,,,,,,space,14.61,,,,,,,,,,,,,,,,,,,,,,,,,,,,,,,,space,35.136,3,5.878,0,0,0,10,1,SoundMST/Duck_B.wav,SoundMST/Duck_A.wav,SIMILAR,,,,,,,,,
,,,,,,,,,,,,,,,,7,2021-10-14_09h34.11.900,Session1,2020.2.10,Win32,60,,,,,,,,,,,,,,,,,,,,,,,,,,,,,,,,,,,,,,,,,,,,,,,,,,,,,,,,1,1.118,0,1,1,62,1,SoundMST/Hammer_A.wav,SoundMST/Crow_A.wav,DIFFERENT,,,,,,,,,
,,,,,,,,,,,,,,,,7,2021-10-14_09h34.11.900,Session1,2020.2.10,Win32,60,,,,,,,,,,,,,,,,,,,,,,,,,,,,,,,,,,,,,,,,,,,,,,,,,,,,,,,,4,1.434,0,2,2,69,1,SoundMST/Airplane_B.wav,SoundMST/Airplane_B.wav,DIFFERENT,,,,,,,,,
,,,,,,,,,,,,,,,,7,2021-10-14_09h34.11.900,Session1,2020.2.10,Win32,60,,,,,,,,,,,,,,,,,,,,,,,,,,,,,,,,,,,,,,,,,,,,,,,,,,,,,,,,4,0.618,0,3,3,40,1,SoundMST/Chime_D.wav,SoundMST/Chime_D.wav,SAME,,,,,,,,,
,,,,,,,,,,,,,,,,7,2021-10-14_09h34.11.900,Session1,2020.2.10,Win32,60,,,,,,,,,,,,,,,,,,,,,,,,,,,,,,,,,,,,,,,,,,,,,,,,,,,,,,,,2,1.673,0,4,4,1,1,SoundMST/Bird_C.wav,SoundMST/Bird_A.wav,SIMILAR,,,,,,,,,
,,,,,,,,,,,,,,,,7,2021-10-14_09h34.11.900,Session1,2020.2.10,Win32,60,,,,,,,,,,,,,,,,,,,,,,,,,,,,,,,,,,,,,,,,,,,,,,,,,,,,,,,,3,1.452,0,5,5,21,1,SoundMST/Trumpet_B.wav,SoundMST/Trumpet_C.wav,SIMILAR,,,,,,,,,
,,,,,,,,,,,,,,,,7,2021-10-14_09h34.11.900,Session1,2020.2.10,Win32,60,,,,,,,,,,,,,,,,,,,,,,,,,,,,,,,,,,,,,,,,,,,,,,,,,,,,,,,,1,0.968,0,6,6,60,1,SoundMST/Typing.wav,SoundMST/Bullfrog.wav,DIFFERENT,,,,,,,,,
,,,,,,,,,,,,,,,,7,2021-10-14_09h34.11.900,Session1,2020.2.10,Win32,60,,,,,,,,,,,,,,,,,,,,,,,,,,,,,,,,,,,,,,,,,,,,,,,,,,,,,,,,3,1.484,0,7,7,14,1,SoundMST/Laugh_A.wav,SoundMST/Laugh_D.wav,SIMILAR,,,,,,,,,
,,,,,,,,,,,,,,,,7,2021-10-14_09h34.11.900,Session1,2020.2.10,Win32,60,,,,,,,,,,,,,,,,,,,,,,,,,,,,,,,,,,,,,,,,,,,,,,,,,,,,,,,,4,0.636,0,8,8,53,1,SoundMST/Piano_D.wav,SoundMST/Piano_D.wav,SAME,,,,,,,,,
,,,,,,,,,,,,,,,,7,2021-10-14_09h34.11.900,Session1,2020.2.10,Win32,60,,,,,,,,,,,,,,,,,,,,,,,,,,,,,,,,,,,,,,,,,,,,,,,,,,,,,,,,4,1.004,0,9,9,30,1,SoundMST/PaperRip.wav,SoundMST/PaperRip.wav,SAME,,,,,,,,,
,,,,,,,,,,,,,,,,7,2021-10-14_09h34.11.900,Session1,2020.2.10,Win32,60,,,,,,,,,,,,,,,,,,,,,,,,,,,,,,,,,,,,,,,,,,,,,,,,,,,,,,,,2,3.617,0,10,10,15,1,SoundMST/ManWhistle.wav,SoundMST/ManWhistle_E.wav,SIMILAR,,,,,,,,,
,,,,,,,,,,,,,,,,7,2021-10-14_09h34.11.900,Session1,2020.2.10,Win32,60,,,,,,,,,,,,,,,,,,,,,,,,,,,,,,,,,,,,,,,,,,,,,,,,,,,,,,,,4,1.158,0,11,11,44,1,SoundMST/Cough_I.wav,SoundMST/Cough_I.wav,SAME,,,,,,,,,
,,,,,,,,,,,,,,,,7,2021-10-14_09h34.11.900,Session1,2020.2.10,Win32,60,,,,,,,,,,,,,,,,,,,,,,,,,,,,,,,,,,,,,,,,,,,,,,,,,,,,,,,,2,1.051,0,12,12,0,1,SoundMST/Baby_C.wav,SoundMST/Baby_B.wav,SIMILAR,,,,,,,,,
,,,,,,,,,,,,,,,,7,2021-10-14_09h34.11.900,Session1,2020.2.10,Win32,60,,,,,,,,,,,,,,,,,,,,,,,,,,,,,,,,,,,,,,,,,,,,,,,,,,,,,,,,1,0.936,0,13,13,73,1,SoundMST/Toilet_B.wav,SoundMST/Horse.wav,DIFFERENT,,,,,,,,,
,,,,,,,,,,,,,,,,7,2021-10-14_09h34.11.900,Session1,2020.2.10,Win32,60,,,,,,,,,,,,,,,,,,,,,,,,,,,,,,,,,,,,,,,,,,,,,,,,,,,,,,,,4,0.886,0,14,14,38,1,SoundMST/Bubbles_A.wav,SoundMST/Bubbles_A.wav,SAME,,,,,,,,,
,,,,,,,,,,,,,,,,7,2021-10-14_09h34.11.900,Session1,2020.2.10,Win32,60,,,,,,,,,,,,,,,,,,,,,,,,,,,,,,,,,,,,,,,,,,,,,,,,,,,,,,,,3,2.917,0,15,15,20,1,SoundMST/Snore_C.wav,SoundMST/Snore_E.wav,SIMILAR,,,,,,,,,
,,,,,,,,,,,,,,,,7,2021-10-14_09h34.11.900,Session1,2020.2.10,Win32,60,,,,,,,,,,,,,,,,,,,,,,,,,,,,,,,,,,,,,,,,,,,,,,,,,,,,,,,,4,0.654,0,16,16,24,1,SoundMST/Wind_B.wav,SoundMST/Wind_B.wav,SAME,,,,,,,,,
,,,,,,,,,,,,,,,,7,2021-10-14_09h34.11.900,Session1,2020.2.10,Win32,60,,,,,,,,,,,,,,,,,,,,,,,,,,,,,,,,,,,,,,,,,,,,,,,,,,,,,,,,4,1.135,0,17,17,54,1,SoundMST/Pour_F.wav,SoundMST/Pour_F.wav,SAME,,,,,,,,,
,,,,,,,,,,,,,,,,7,2021-10-14_09h34.11.900,Session1,2020.2.10,Win32,60,,,,,,,,,,,,,,,,,,,,,,,,,,,,,,,,,,,,,,,,,,,,,,,,,,,,,,,,2,1.04,0,18,18,3,1,SoundMST/CarStart_E.wav,SoundMST/CarStart_D.wav,SIMILAR,,,,,,,,,
,,,,,,,,,,,,,,,,7,2021-10-14_09h34.11.900,Session1,2020.2.10,Win32,60,,,,,,,,,,,,,,,,,,,,,,,,,,,,,,,,,,,,,,,,,,,,,,,,,,,,,,,,4,1.086,0,19,19,37,1,SoundMST/Bird_C.wav,SoundMST/Bird_C.wav,SAME,,,,,,,,,
,,,,,,,,,,,,,,,,7,2021-10-14_09h34.11.900,Session1,2020.2.10,Win32,60,,,,,,,,,,,,,,,,,,,,,,,,,,,,,,,,,,,,,,,,,,,,,,,,,,,,,,,,1,0.801,0,20,20,72,1,SoundMST/Steam.wav,SoundMST/Toilet_B.wav,DIFFERENT,,,,,,,,,
,,,,,,,,,,,,,,,,7,2021-10-14_09h34.11.900,Session1,2020.2.10,Win32,60,,,,,,,,,,,,,,,,,,,,,,,,,,,,,,,,,,,,,,,,,,,,,,,,,,,,,,,,1,0.506,0,21,21,59,1,SoundMST/Thunder_A.wav,SoundMST/Cuckoo_A.wav,DIFFERENT,,,,,,,,,
,,,,,,,,,,,,,,,,7,2021-10-14_09h34.11.900,Session1,2020.2.10,Win32,60,,,,,,,,,,,,,,,,,,,,,,,,,,,,,,,,,,,,,,,,,,,,,,,,,,,,,,,,2,2.168,0,22,22,6,1,SoundMST/Clap_A.wav,SoundMST/Clap_D.wav,SIMILAR,,,,,,,,,
,,,,,,,,,,,,,,,,7,2021-10-14_09h34.11.900,Session1,2020.2.10,Win32,60,,,,,,,,,,,,,,,,,,,,,,,,,,,,,,,,,,,,,,,,,,,,,,,,,,,,,,,,1,0.655,0,23,23,75,1,SoundMST/Baby_C.wav,SoundMST/Dog_I.wav,DIFFERENT,,,,,,,,,
,,,,,,,,,,,,,,,,7,2021-10-14_09h34.11.900,Session1,2020.2.10,Win32,60,,,,,,,,,,,,,,,,,,,,,,,,,,,,,,,,,,,,,,,,,,,,,,,,,,,,,,,,1,0.835,0,24,24,78,1,SoundMST/CarStart_E.wav,SoundMST/Coin_E.wav,DIFFERENT,,,,,,,,,
,,,,,,,,,,,,,,,,7,2021-10-14_09h34.11.900,Session1,2020.2.10,Win32,60,,,,,,,,,,,,,,,,,,,,,,,,,,,,,,,,,,,,,,,,,,,,,,,,,,,,,,,,4,1.419,0,25,25,34,1,SoundMST/DialTone.wav,SoundMST/DialTone.wav,SAME,,,,,,,,,
,,,,,,,,,,,,,,,,7,2021-10-14_09h34.11.900,Session1,2020.2.10,Win32,60,,,,,,,,,,,,,,,,,,,,,,,,,,,,,,,,,,,,,,,,,,,,,,,,,,,,,,,,1,0.358,0,26,26,76,1,SoundMST/Bird_C.wav,SoundMST/Chime_A.wav,DIFFERENT,,,,,,,,,
,,,,,,,,,,,,,,,,7,2021-10-14_09h34.11.900,Session1,2020.2.10,Win32,60,,,,,,,,,,,,,,,,,,,,,,,,,,,,,,,,,,,,,,,,,,,,,,,,,,,,,,,,4,1.401,0,27,27,49,1,SoundMST/Footsteps_C.wav,SoundMST/Footsteps_C.wav,SAME,,,,,,,,,
,,,,,,,,,,,,,,,,7,2021-10-14_09h34.11.900,Session1,2020.2.10,Win32,60,,,,,,,,,,,,,,,,,,,,,,,,,,,,,,,,,,,,,,,,,,,,,,,,,,,,,,,,1,0.838,0,28,28,65,1,SoundMST/Bowlingpins.wav,SoundMST/Steam.wav,DIFFERENT,,,,,,,,,
,,,,,,,,,,,,,,,,7,2021-10-14_09h34.11.900,Session1,2020.2.10,Win32,60,,,,,,,,,,,,,,,,,,,,,,,,,,,,,,,,,,,,,,,,,,,,,,,,,,,,,,,,4,1.168,0,29,29,36,1,SoundMST/Baby_C.wav,SoundMST/Baby_C.wav,SAME,,,,,,,,,
,,,,,,,,,,,,,,,,7,2021-10-14_09h34.11.900,Session1,2020.2.10,Win32,60,,,,,,,,,,,,,,,,,,,,,,,,,,,,,,,,,,,,,,,,,,,,,,,,,,,,,,,,1,1.185,0,30,30,61,1,SoundMST/Cello.wav,SoundMST/Hammer_A.wav,DIFFERENT,,,,,,,,,
,,,,,,,,,,,,,,,,7,2021-10-14_09h34.11.900,Session1,2020.2.10,Win32,60,,,,,,,,,,,,,,,,,,,,,,,,,,,,,,,,,,,,,,,,,,,,,,,,,,,,,,,,1,0.639,0,31,31,67,1,SoundMST/Cuckoo_A.wav,SoundMST/Mosquito_B.wav,DIFFERENT,,,,,,,,,
,,,,,,,,,,,,,,,,7,2021-10-14_09h34.11.900,Session1,2020.2.10,Win32,60,,,,,,,,,,,,,,,,,,,,,,,,,,,,,,,,,,,,,,,,,,,,,,,,,,,,,,,,3,0.875,0,32,32,4,1,SoundMST/Chime_D.wav,SoundMST/Chime_A.wav,SIMILAR,,,,,,,,,
,,,,,,,,,,,,,,,,7,2021-10-14_09h34.11.900,Session1,2020.2.10,Win32,60,,,,,,,,,,,,,,,,,,,,,,,,,,,,,,,,,,,,,,,,,,,,,,,,,,,,,,,,1,0.727,0,33,33,66,1,SoundMST/Crow_A.wav,SoundMST/Typing.wav,DIFFERENT,,,,,,,,,
,,,,,,,,,,,,,,,,7,2021-10-14_09h34.11.900,Session1,2020.2.10,Win32,60,,,,,,,,,,,,,,,,,,,,,,,,,,,,,,,,,,,,,,,,,,,,,,,,,,,,,,,,4,1.051,0,34,34,57,1,SoundMST/Trumpet_B.wav,SoundMST/Trumpet_B.wav,SAME,,,,,,,,,
,,,,,,,,,,,,,,,,7,2021-10-14_09h34.11.900,Session1,2020.2.10,Win32,60,,,,,,,,,,,,,,,,,,,,,,,,,,,,,,,,,,,,,,,,,,,,,,,,,,,,,,,,4,0.809,0,35,35,32,1,SoundMST/Cow.wav,SoundMST/Cow.wav,SAME,,,,,,,,,
,,,,,,,,,,,,,,,,7,2021-10-14_09h34.11.900,Session1,2020.2.10,Win32,60,,,,,,,,,,,,,,,,,,,,,,,,,,,,,,,,,,,,,,,,,,,,,,,,,,,,,,,,3,1.003,0,36,36,8,1,SoundMST/Cough_I.wav,SoundMST/Cough_J.wav,SIMILAR,,,,,,,,,
,,,,,,,,,,,,,,,,7,2021-10-14_09h34.11.900,Session1,2020.2.10,Win32,60,,,,,,,,,,,,,,,,,,,,,,,,,,,,,,,,,,,,,,,,,,,,,,,,,,,,,,,,4,1.187,0,37,37,52,1,SoundMST/Phone_F.wav,SoundMST/Phone_F.wav,SAME,,,,,,,,,
,,,,,,,,,,,,,,,,7,2021-10-14_09h34.11.900,Session1,2020.2.10,Win32,60,,,,,,,,,,,,,,,,,,,,,,,,,,,,,,,,,,,,,,,,,,,,,,,,,,,,,,,,4,1.156,0,38,38,25,1,SoundMST/Puff_A.wav,SoundMST/Puff_A.wav,SAME,,,,,,,,,
,,,,,,,,,,,,,,,,7,2021-10-14_09h34.11.900,Session1,2020.2.10,Win32,60,,,,,,,,,,,,,,,,,,,,,,,,,,,,,,,,,,,,,,,,,,,,,,,,,,,,,,,,3,1.409,0,39,39,7,1,SoundMST/Coin_D.wav,SoundMST/Coin_E.wav,SIMILAR,,,,,,,,,
,,,,,,,,,,,,,,,,7,2021-10-14_09h34.11.900,Session1,2020.2.10,Win32,60,,,,,,,,,,,,,,,,,,,,,,,,,,,,,,,,,,,,,,,,,,,,,,,,,,,,,,,,4,1.236,0,40,40,29,1,SoundMST/Cup.wav,SoundMST/Cup.wav,SAME,,,,,,,,,
,,,,,,,,,,,,,,,,7,2021-10-14_09h34.11.900,Session1,2020.2.10,Win32,60,,,,,,,,,,,,,,,,,,,,,,,,,,,,,,,,,,,,,,,,,,,,,,,,,,,,,,,,4,0.901,0,41,41,47,1,SoundMST/Elephant_C.wav,SoundMST/Elephant_C.wav,SAME,,,,,,,,,
,,,,,,,,,,,,,,,,7,2021-10-14_09h34.11.900,Session1,2020.2.10,Win32,60,,,,,,,,,,,,,,,,,,,,,,,,,,,,,,,,,,,,,,,,,,,,,,,,,,,,,,,,1,1.35,0,42,42,77,1,SoundMST/Bubbles_A.wav,SoundMST/Duck_A.wav,DIFFERENT,,,,,,,,,
,,,,,,,,,,,,,,,,7,2021-10-14_09h34.11.900,Session1,2020.2.10,Win32,60,,,,,,,,,,,,,,,,,,,,,,,,,,,,,,,,,,,,,,,,,,,,,,,,,,,,,,,,3,0.918,0,43,43,18,1,SoundMST/Pour_F.wav,SoundMST/Pour_C.wav,SIMILAR,,,,,,,,,
,,,,,,,,,,,,,,,,7,2021-10-14_09h34.11.900,Session1,2020.2.10,Win32,60,,,,,,,,,,,,,,,,,,,,,,,,,,,,,,,,,,,,,,,,,,,,,,,,,,,,,,,,4,1.203,0,44,44,45,1,SoundMST/Dog_H.wav,SoundMST/Dog_H.wav,SAME,,,,,,,,,
,,,,,,,,,,,,,,,,7,2021-10-14_09h34.11.900,Session1,2020.2.10,Win32,60,,,,,,,,,,,,,,,,,,,,,,,,,,,,,,,,,,,,,,,,,,,,,,,,,,,,,,,,1,0.77,0,45,45,71,1,SoundMST/Sleighbells_B.wav,SoundMST/Thunder_A.wav,DIFFERENT,,,,,,,,,
,,,,,,,,,,,,,,,,7,2021-10-14_09h34.11.900,Session1,2020.2.10,Win32,60,,,,,,,,,,,,,,,,,,,,,,,,,,,,,,,,,,,,,,,,,,,,,,,,,,,,,,,,3,1.992,0,46,46,12,1,SoundMST/Faucet_A.wav,SoundMST/Faucet_C.wav,SIMILAR,,,,,,,,,
,,,,,,,,,,,,,,,,7,2021-10-14_09h34.11.900,Session1,2020.2.10,Win32,60,,,,,,,,,,,,,,,,,,,,,,,,,,,,,,,,,,,,,,,,,,,,,,,,,,,,,,,,3,0.594,0,47,47,19,1,SoundMST/Siren_E.wav,SoundMST/Siren_A.wav,SIMILAR,,,,,,,,,
,,,,,,,,,,,,,,,,7,2021-10-14_09h34.11.900,Session1,2020.2.10,Win32,60,,,,,,,,,,,,,,,,,,,,,,,,,,,,,,,,,,,,,,,,,,,,,,,,,,,,,,,,1,0.652,0,48,48,70,1,SoundMST/Camera.wav,SoundMST/Sleighbells_B.wav,DIFFERENT,,,,,,,,,
,,,,,,,,,,,,,,,,7,2021-10-14_09h34.11.900,Session1,2020.2.10,Win32,60,,,,,,,,,,,,,,,,,,,,,,,,,,,,,,,,,,,,,,,,,,,,,,,,,,,,,,,,1,0.676,0,49,49,80,1,SoundMST/Chomp_A.wav,SoundMST/Bird_A.wav,DIFFERENT,,,,,,,,,
,,,,,,,,,,,,,,,,7,2021-10-14_09h34.11.900,Session1,2020.2.10,Win32,60,,,,,,,,,,,,,,,,,,,,,,,,,,,,,,,,,,,,,,,,,,,,,,,,,,,,,,,,4,0.84,0,50,50,28,1,SoundMST/Fireworks.wav,SoundMST/Fireworks.wav,SAME,,,,,,,,,
,,,,,,,,,,,,,,,,7,2021-10-14_09h34.11.900,Session1,2020.2.10,Win32,60,,,,,,,,,,,,,,,,,,,,,,,,,,,,,,,,,,,,,,,,,,,,,,,,,,,,,,,,1,1.671,0,51,51,74,1,SoundMST/Bullfrog.wav,SoundMST/Chicken_A.wav,DIFFERENT,,,,,,,,,
,,,,,,,,,,,,,,,,7,2021-10-14_09h34.11.900,Session1,2020.2.10,Win32,60,,,,,,,,,,,,,,,,,,,,,,,,,,,,,,,,,,,,,,,,,,,,,,,,,,,,,,,,4,0.886,0,52,52,27,1,SoundMST/Growl_H.wav,SoundMST/Growl_H.wav,SAME,,,,,,,,,
,,,,,,,,,,,,,,,,7,2021-10-14_09h34.11.900,Session1,2020.2.10,Win32,60,,,,,,,,,,,,,,,,,,,,,,,,,,,,,,,,,,,,,,,,,,,,,,,,,,,,,,,,4,0.807,0,53,53,33,1,SoundMST/Buzz.wav,SoundMST/Buzz.wav,SAME,,,,,,,,,
,,,,,,,,,,,,,,,,7,2021-10-14_09h34.11.900,Session1,2020.2.10,Win32,60,,,,,,,,,,,,,,,,,,,,,,,,,,,,,,,,,,,,,,,,,,,,,,,,,,,,,,,,4,0.722,0,54,54,48,1,SoundMST/Faucet_A.wav,SoundMST/Faucet_A.wav,SAME,,,,,,,,,
,,,,,,,,,,,,,,,,7,2021-10-14_09h34.11.900,Session1,2020.2.10,Win32,60,,,,,,,,,,,,,,,,,,,,,,,,,,,,,,,,,,,,,,,,,,,,,,,,,,,,,,,,3,1.018,0,55,55,55,1,SoundMST/Siren_E.wav,SoundMST/Siren_E.wav,SAME,,,,,,,,,
,,,,,,,,,,,,,,,,7,2021-10-14_09h34.11.900,Session1,2020.2.10,Win32,60,,,,,,,,,,,,,,,,,,,,,,,,,,,,,,,,,,,,,,,,,,,,,,,,,,,,,,,,4,1.184,0,56,56,51,1,SoundMST/ManWhistle.wav,SoundMST/ManWhistle.wav,SAME,,,,,,,,,
,,,,,,,,,,,,,,,,7,2021-10-14_09h34.11.900,Session1,2020.2.10,Win32,60,,,,,,,,,,,,,,,,,,,,,,,,,,,,,,,,,,,,,,,,,,,,,,,,,,,,,,,,3,1.327,0,57,57,11,1,SoundMST/Elephant_C.wav,SoundMST/Elephant_A.wav,SIMILAR,,,,,,,,,
,,,,,,,,,,,,,,,,7,2021-10-14_09h34.11.900,Session1,2020.2.10,Win32,60,,,,,,,,,,,,,,,,,,,,,,,,,,,,,,,,,,,,,,,,,,,,,,,,,,,,,,,,4,3.103,0,58,58,43,1,SoundMST/Coin_D.wav,SoundMST/Coin_D.wav,SAME,,,,,,,,,
,,,,,,,,,,,,,,,,7,2021-10-14_09h34.11.900,Session1,2020.2.10,Win32,60,,,,,,,,,,,,,,,,,,,,,,,,,,,,,,,,,,,,,,,,,,,,,,,,,,,,,,,,4,1.192,0,59,59,41,1,SoundMST/Chomp_A.wav,SoundMST/Chomp_A.wav,SAME,,,,,,,,,
,,,,,,,,,,,,,,,,7,2021-10-14_09h34.11.900,Session1,2020.2.10,Win32,60,,,,,,,,,,,,,,,,,,,,,,,,,,,,,,,,,,,,,,,,,,,,,,,,,,,,,,,,4,1.503,0,60,60,26,1,SoundMST/Droplet_B.wav,SoundMST/Droplet_B.wav,SAME,,,,,,,,,
,,,,,,,,,,,,,,,,7,2021-10-14_09h34.11.900,Session1,2020.2.10,Win32,60,,,,,,,,,,,,,,,,,,,,,,,,,,,,,,,,,,,,,,,,,,,,,,,,,,,,,,,,1,0.892,0,61,61,64,1,SoundMST/Horse.wav,SoundMST/Bowlingpins.wav,DIFFERENT,,,,,,,,,
,,,,,,,,,,,,,,,,7,2021-10-14_09h34.11.900,Session1,2020.2.10,Win32,60,,,,,,,,,,,,,,,,,,,,,,,,,,,,,,,,,,,,,,,,,,,,,,,,,,,,,,,,1,0.441,0,62,62,82,1,SoundMST/Coin_D.wav,SoundMST/Elephant_A.wav,DIFFERENT,,,,,,,,,
,,,,,,,,,,,,,,,,7,2021-10-14_09h34.11.900,Session1,2020.2.10,Win32,60,,,,,,,,,,,,,,,,,,,,,,,,,,,,,,,,,,,,,,,,,,,,,,,,,,,,,,,,3,1.441,0,63,63,2,1,SoundMST/Bubbles_A.wav,SoundMST/Bubbles_B.wav,SIMILAR,,,,,,,,,
,,,,,,,,,,,,,,,,7,2021-10-14_09h34.11.900,Session1,2020.2.10,Win32,60,,,,,,,,,,,,,,,,,,,,,,,,,,,,,,,,,,,,,,,,,,,,,,,,,,,,,,,,3,0.92,0,64,64,13,1,SoundMST/Footsteps_C.wav,SoundMST/Footsteps_F.wav,SIMILAR,,,,,,,,,
,,,,,,,,,,,,,,,,7,2021-10-14_09h34.11.900,Session1,2020.2.10,Win32,60,,,,,,,,,,,,,,,,,,,,,,,,,,,,,,,,,,,,,,,,,,,,,,,,,,,,,,,,1,0.491,0,65,65,79,1,SoundMST/Chime_D.wav,SoundMST/Baby_B.wav,DIFFERENT,,,,,,,,,
,,,,,,,,,,,,,,,,7,2021-10-14_09h34.11.900,Session1,2020.2.10,Win32,60,,,,,,,,,,,,,,,,,,,,,,,,,,,,,,,,,,,,,,,,,,,,,,,,,,,,,,,,3,1.037,0,66,66,9,1,SoundMST/Dog_H.wav,SoundMST/Dog_I.wav,SIMILAR,,,,,,,,,
,,,,,,,,,,,,,,,,7,2021-10-14_09h34.11.900,Session1,2020.2.10,Win32,60,,,,,,,,,,,,,,,,,,,,,,,,,,,,,,,,,,,,,,,,,,,,,,,,,,,,,,,,4,1.152,0,67,67,39,1,SoundMST/CarStart_E.wav,SoundMST/CarStart_E.wav,SAME,,,,,,,,,
,,,,,,,,,,,,,,,,7,2021-10-14_09h34.11.900,Session1,2020.2.10,Win32,60,,,,,,,,,,,,,,,,,,,,,,,,,,,,,,,,,,,,,,,,,,,,,,,,,,,,,,,,4,0.635,0,68,68,31,1,SoundMST/Guitar_B.wav,SoundMST/Guitar_B.wav,SAME,,,,,,,,,
,,,,,,,,,,,,,,,,7,2021-10-14_09h34.11.900,Session1,2020.2.10,Win32,60,,,,,,,,,,,,,,,,,,,,,,,,,,,,,,,,,,,,,,,,,,,,,,,,,,,,,,,,1,0.886,0,69,69,81,1,SoundMST/Clap_A.wav,SoundMST/Bubbles_B.wav,DIFFERENT,,,,,,,,,
,,,,,,,,,,,,,,,,7,2021-10-14_09h34.11.900,Session1,2020.2.10,Win32,60,,,,,,,,,,,,,,,,,,,,,,,,,,,,,,,,,,,,,,,,,,,,,,,,,,,,,,,,4,1.468,0,70,70,46,1,SoundMST/Duck_B.wav,SoundMST/Duck_B.wav,SAME,,,,,,,,,
,,,,,,,,,,,,,,,,7,2021-10-14_09h34.11.900,Session1,2020.2.10,Win32,60,,,,,,,,,,,,,,,,,,,,,,,,,,,,,,,,,,,,,,,,,,,,,,,,,,,,,,,,2,1.043,0,71,71,17,1,SoundMST/Piano_D.wav,SoundMST/Piano_C.wav,SIMILAR,,,,,,,,,
,,,,,,,,,,,,,,,,7,2021-10-14_09h34.11.900,Session1,2020.2.10,Win32,60,,,,,,,,,,,,,,,,,,,,,,,,,,,,,,,,,,,,,,,,,,,,,,,,,,,,,,,,4,1.451,0,72,72,35,1,SoundMST/Goat_C.wav,SoundMST/Goat_C.wav,SAME,,,,,,,,,
,,,,,,,,,,,,,,,,7,2021-10-14_09h34.11.900,Session1,2020.2.10,Win32,60,,,,,,,,,,,,,,,,,,,,,,,,,,,,,,,,,,,,,,,,,,,,,,,,,,,,,,,,4,1.354,0,73,73,58,1,SoundMST/Whistle_B.wav,SoundMST/Whistle_B.wav,SAME,,,,,,,,,
,,,,,,,,,,,,,,,,7,2021-10-14_09h34.11.900,Session1,2020.2.10,Win32,60,,,,,,,,,,,,,,,,,,,,,,,,,,,,,,,,,,,,,,,,,,,,,,,,,,,,,,,,4,1.267,0,74,74,50,1,SoundMST/Laugh_A.wav,SoundMST/Laugh_A.wav,SAME,,,,,,,,,
,,,,,,,,,,,,,,,,7,2021-10-14_09h34.11.900,Session1,2020.2.10,Win32,60,,,,,,,,,,,,,,,,,,,,,,,,,,,,,,,,,,,,,,,,,,,,,,,,,,,,,,,,4,0.96,0,75,75,56,1,SoundMST/Snore_C.wav,SoundMST/Snore_C.wav,SAME,,,,,,,,,
,,,,,,,,,,,,,,,,7,2021-10-14_09h34.11.900,Session1,2020.2.10,Win32,60,,,,,,,,,,,,,,,,,,,,,,,,,,,,,,,,,,,,,,,,,,,,,,,,,,,,,,,,3,1.401,0,76,76,22,1,SoundMST/Whistle_B.wav,SoundMST/Whistle_C.wav,SIMILAR,,,,,,,,,
,,,,,,,,,,,,,,,,7,2021-10-14_09h34.11.900,Session1,2020.2.10,Win32,60,,,,,,,,,,,,,,,,,,,,,,,,,,,,,,,,,,,,,,,,,,,,,,,,,,,,,,,,4,2.217,0,77,77,42,1,SoundMST/Clap_A.wav,SoundMST/Clap_A.wav,SAME,,,,,,,,,
,,,,,,,,,,,,,,,,7,2021-10-14_09h34.11.900,Session1,2020.2.10,Win32,60,,,,,,,,,,,,,,,,,,,,,,,,,,,,,,,,,,,,,,,,,,,,,,,,,,,,,,,,2,3.133,0,78,78,16,1,SoundMST/Phone_F.wav,SoundMST/Phone_E.wav,SIMILAR,,,,,,,,,
,,,,,,,,,,,,,,,,7,2021-10-14_09h34.11.900,Session1,2020.2.10,Win32,60,,,,,,,,,,,,,,,,,,,,,,,,,,,,,,,,,,,,,,,,,,,,,,,,,,,,,,,,1,0.657,0,79,79,68,1,SoundMST/Chicken_A.wav,SoundMST/Cello.wav,DIFFERENT,,,,,,,,,
,,,,,,,,,,,,,,,,7,2021-10-14_09h34.11.900,Session1,2020.2.10,Win32,60,,,,,,,,,,,,,,,,,,,,,,,,,,,,,,,,,,,,,,,,,,,,,,,,,,,,,,,,1,1.626,0,80,80,63,1,SoundMST/Mosquito_B.wav,SoundMST/Camera.wav,DIFFERENT,,,,,,,,,
,,,,,,,,,,,,,,,,7,2021-10-14_09h34.11.900,Session1,2020.2.10,Win32,60,,,,,,,,,,,,,,,,,,,,,,,,,,,,,,,,,,,,,,,,,,,,,,,,,,,,,,,,3,1.369,0,81,81,23,1,SoundMST/Writing_A.wav,SoundMST/Writing_C.wav,SIMILAR,,,,,,,,,
,,,,,,,,,,,,,,,,7,2021-10-14_09h34.11.900,Session1,2020.2.10,Win32,60,,,,,,,,,,,,,,,,,,,,,,,,,,,,,,,,,,,,,,,,,,,,,,,,,,,,,,,,3,1.685,0,82,82,5,1,SoundMST/Chomp_A.wav,SoundMST/Chomp_C.wav,SIMILAR,,,,,,,,,
<<<<<<< HEAD
,,,,,,,,,,,,,,,,7,2021-10-14_09h34.11.900,Session1,2020.2.10,Win32,60,,,,,,,,,,,,,,,,,,,,,space,6.17,,,,,,,,,,,,,,,,,,,,,,,,,,,,,,,,,,,,,,,,,SoundMST/HairDryer_A.wav,NEW,NA,space,21.942,vacuum cleaner,4.895,0,0,0,38,1
,,,,,,,,,,,,,,,,7,2021-10-14_09h34.11.900,Session1,2020.2.10,Win32,60,,,,,,,,,,,,,,,,,,,,,,,,,,,,,,,,,,,,,,,,,,,,,,,,,,,,,,,,,,,,,,,SoundMST/Chomp_C.wav,SIMILAR,NA,,,eating,3.733,0,1,1,84,1
,,,,,,,,,,,,,,,,7,2021-10-14_09h34.11.900,Session1,2020.2.10,Win32,60,,,,,,,,,,,,,,,,,,,,,,,,,,,,,,,,,,,,,,,,,,,,,,,,,,,,,,,,,,,,,,,SoundMST/Faucet_C.wav,SIMILAR,NA,,,water running tap,3.804,0,2,2,73,1
,,,,,,,,,,,,,,,,7,2021-10-14_09h34.11.900,Session1,2020.2.10,Win32,60,,,,,,,,,,,,,,,,,,,,,,,,,,,,,,,,,,,,,,,,,,,,,,,,,,,,,,,,,,,,,,,SoundMST/Cup.wav,NEW,NA,,,bumping a jar,6.868,0,3,3,42,1
,,,,,,,,,,,,,,,,7,2021-10-14_09h34.11.900,Session1,2020.2.10,Win32,60,,,,,,,,,,,,,,,,,,,,,,,,,,,,,,,,,,,,,,,,,,,,,,,,,,,,,,,,,,,,,,,SoundMST/Snore_E.wav,SIMILAR,NA,,,snoring,4.251,0,4,4,71,1
,,,,,,,,,,,,,,,,7,2021-10-14_09h34.11.900,Session1,2020.2.10,Win32,60,,,,,,,,,,,,,,,,,,,,,,,,,,,,,,,,,,,,,,,,,,,,,,,,,,,,,,,,,,,,,,,SoundMST/Growl_H.wav,NEW,NA,,,lion,3.453,0,5,5,45,1
,,,,,,,,,,,,,,,,7,2021-10-14_09h34.11.900,Session1,2020.2.10,Win32,60,,,,,,,,,,,,,,,,,,,,,,,,,,,,,,,,,,,,,,,,,,,,,,,,,,,,,,,,,,,,,,,SoundMST/Faucet_A.wav,NEW,NA,,,tap water,4.002,0,6,6,21,1
,,,,,,,,,,,,,,,,7,2021-10-14_09h34.11.900,Session1,2020.2.10,Win32,60,,,,,,,,,,,,,,,,,,,,,,,,,,,,,,,,,,,,,,,,,,,,,,,,,,,,,,,,,,,,,,,SoundMST/Clap_D.wav,SIMILAR,NA,,,running on stairs,9.688,0,7,7,81,1
,,,,,,,,,,,,,,,,7,2021-10-14_09h34.11.900,Session1,2020.2.10,Win32,60,,,,,,,,,,,,,,,,,,,,,,,,,,,,,,,,,,,,,,,,,,,,,,,,,,,,,,,,,,,,,,,SoundMST/Horse.wav,NEW,NA,,,horse,3.75,0,8,8,35,1
,,,,,,,,,,,,,,,,7,2021-10-14_09h34.11.900,Session1,2020.2.10,Win32,60,,,,,,,,,,,,,,,,,,,,,,,,,,,,,,,,,,,,,,,,,,,,,,,,,,,,,,,,,,,,,,,SoundMST/Snore_C.wav,NEW,NA,,,snoring,3.522,0,9,9,16,1
,,,,,,,,,,,,,,,,7,2021-10-14_09h34.11.900,Session1,2020.2.10,Win32,60,,,,,,,,,,,,,,,,,,,,,,,,,,,,,,,,,,,,,,,,,,,,,,,,,,,,,,,,,,,,,,,SoundMST/Bullfrog.wav,NEW,NA,,,frog,3.867,0,10,10,23,1
,,,,,,,,,,,,,,,,7,2021-10-14_09h34.11.900,Session1,2020.2.10,Win32,60,,,,,,,,,,,,,,,,,,,,,,,,,,,,,,,,,,,,,,,,,,,,,,,,,,,,,,,,,,,,,,,SoundMST/Bagpipe.wav,NEW,NA,,,bagpipes,3.299,0,11,11,53,1
,,,,,,,,,,,,,,,,7,2021-10-14_09h34.11.900,Session1,2020.2.10,Win32,60,,,,,,,,,,,,,,,,,,,,,,,,,,,,,,,,,,,,,,,,,,,,,,,,,,,,,,,,,,,,,,,SoundMST/Writing_A.wav,NEW,NA,,,writing on paper,3.955,0,12,12,1,1
,,,,,,,,,,,,,,,,7,2021-10-14_09h34.11.900,Session1,2020.2.10,Win32,60,,,,,,,,,,,,,,,,,,,,,,,,,,,,,,,,,,,,,,,,,,,,,,,,,,,,,,,,,,,,,,,SoundMST/Buzz.wav,NEW,NA,,,alarm wrist watch,4.023,0,13,13,0,1
,,,,,,,,,,,,,,,,7,2021-10-14_09h34.11.900,Session1,2020.2.10,Win32,60,,,,,,,,,,,,,,,,,,,,,,,,,,,,,,,,,,,,,,,,,,,,,,,,,,,,,,,,,,,,,,,SoundMST/Guitar_B.wav,NEW,NA,,,guitar strum,5.873,0,14,14,24,1
,,,,,,,,,,,,,,,,7,2021-10-14_09h34.11.900,Session1,2020.2.10,Win32,60,,,,,,,,,,,,,,,,,,,,,,,,,,,,,,,,,,,,,,,,,,,,,,,,,,,,,,,,,,,,,,,SoundMST/Siren_A.wav,SIMILAR,NA,,,siren,4.504,0,15,15,83,1
,,,,,,,,,,,,,,,,7,2021-10-14_09h34.11.900,Session1,2020.2.10,Win32,60,,,,,,,,,,,,,,,,,,,,,,,,,,,,,,,,,,,,,,,,,,,,,,,,,,,,,,,,,,,,,,,SoundMST/Phone_F.wav,NEW,NA,,,phone,3.432,0,16,16,15,1
,,,,,,,,,,,,,,,,7,2021-10-14_09h34.11.900,Session1,2020.2.10,Win32,60,,,,,,,,,,,,,,,,,,,,,,,,,,,,,,,,,,,,,,,,,,,,,,,,,,,,,,,,,,,,,,,SoundMST/Bubbles_A.wav,NEW,NA,,,bubbles,3.604,0,17,17,63,1
,,,,,,,,,,,,,,,,7,2021-10-14_09h34.11.900,Session1,2020.2.10,Win32,60,,,,,,,,,,,,,,,,,,,,,,,,,,,,,,,,,,,,,,,,,,,,,,,,,,,,,,,,,,,,,,,SoundMST/Goat_C.wav,NEW,NA,,,sheep,2.823,0,18,18,12,1
,,,,,,,,,,,,,,,,7,2021-10-14_09h34.11.900,Session1,2020.2.10,Win32,60,,,,,,,,,,,,,,,,,,,,,,,,,,,,,,,,,,,,,,,,,,,,,,,,,,,,,,,,,,,,,,,SoundMST/Helicopter_A.wav,NEW,NA,,,helicopter,3.166,0,19,19,62,1
,,,,,,,,,,,,,,,,7,2021-10-14_09h34.11.900,Session1,2020.2.10,Win32,60,,,,,,,,,,,,,,,,,,,,,,,,,,,,,,,,,,,,,,,,,,,,,,,,,,,,,,,,,,,,,,,SoundMST/IceDrop.wav,NEW,NA,,,dropping smth into a glass,5.488,0,20,20,55,1
,,,,,,,,,,,,,,,,7,2021-10-14_09h34.11.900,Session1,2020.2.10,Win32,60,,,,,,,,,,,,,,,,,,,,,,,,,,,,,,,,,,,,,,,,,,,,,,,,,,,,,,,,,,,,,,,SoundMST/Puff_A.wav,NEW,NA,,,dog's squeeky toy,7.522,0,21,21,4,1
,,,,,,,,,,,,,,,,7,2021-10-14_09h34.11.900,Session1,2020.2.10,Win32,60,,,,,,,,,,,,,,,,,,,,,,,,,,,,,,,,,,,,,,,,,,,,,,,,,,,,,,,,,,,,,,,SoundMST/Wind_B.wav,NEW,NA,,,wind outisde,5.584,0,22,22,50,1
,,,,,,,,,,,,,,,,7,2021-10-14_09h34.11.900,Session1,2020.2.10,Win32,60,,,,,,,,,,,,,,,,,,,,,,,,,,,,,,,,,,,,,,,,,,,,,,,,,,,,,,,,,,,,,,,SoundMST/Laugh_D.wav,SIMILAR,NA,,,laughter,4.122,0,23,23,78,1
,,,,,,,,,,,,,,,,7,2021-10-14_09h34.11.900,Session1,2020.2.10,Win32,60,,,,,,,,,,,,,,,,,,,,,,,,,,,,,,,,,,,,,,,,,,,,,,,,,,,,,,,,,,,,,,,SoundMST/Laugh_A.wav,NEW,NA,,,laughter,3.601,0,24,24,28,1
,,,,,,,,,,,,,,,,7,2021-10-14_09h34.11.900,Session1,2020.2.10,Win32,60,,,,,,,,,,,,,,,,,,,,,,,,,,,,,,,,,,,,,,,,,,,,,,,,,,,,,,,,,,,,,,,SoundMST/Donkey.wav,NEW,NA,,,donkey,3.817,0,25,25,30,1
,,,,,,,,,,,,,,,,7,2021-10-14_09h34.11.900,Session1,2020.2.10,Win32,60,,,,,,,,,,,,,,,,,,,,,,,,,,,,,,,,,,,,,,,,,,,,,,,,,,,,,,,,,,,,,,,SoundMST/Chicken_A.wav,NEW,NA,,,chicken,3.417,0,26,26,11,1
,,,,,,,,,,,,,,,,7,2021-10-14_09h34.11.900,Session1,2020.2.10,Win32,60,,,,,,,,,,,,,,,,,,,,,,,,,,,,,,,,,,,,,,,,,,,,,,,,,,,,,,,,,,,,,,,SoundMST/Coin_E.wav,SIMILAR,NA,,,counting change off tbale,5.165,0,27,27,86,1
,,,,,,,,,,,,,,,,7,2021-10-14_09h34.11.900,Session1,2020.2.10,Win32,60,,,,,,,,,,,,,,,,,,,,,,,,,,,,,,,,,,,,,,,,,,,,,,,,,,,,,,,,,,,,,,,SoundMST/Elephant_C.wav,NEW,NA,,,elephent,4.805,0,28,28,3,1
,,,,,,,,,,,,,,,,7,2021-10-14_09h34.11.900,Session1,2020.2.10,Win32,60,,,,,,,,,,,,,,,,,,,,,,,,,,,,,,,,,,,,,,,,,,,,,,,,,,,,,,,,,,,,,,,SoundMST/Chomp_A.wav,NEW,NA,,,eating cereal,5.488,0,29,29,57,1
,,,,,,,,,,,,,,,,7,2021-10-14_09h34.11.900,Session1,2020.2.10,Win32,60,,,,,,,,,,,,,,,,,,,,,,,,,,,,,,,,,,,,,,,,,,,,,,,,,,,,,,,,,,,,,,,SoundMST/Thunder_A.wav,NEW,NA,,,storm outisde,4.518,0,30,30,39,1
,,,,,,,,,,,,,,,,7,2021-10-14_09h34.11.900,Session1,2020.2.10,Win32,60,,,,,,,,,,,,,,,,,,,,,,,,,,,,,,,,,,,,,,,,,,,,,,,,,,,,,,,,,,,,,,,SoundMST/Printer.wav,NEW,NA,,,opening a sliding door,11.052,0,31,31,34,1
,,,,,,,,,,,,,,,,7,2021-10-14_09h34.11.900,Session1,2020.2.10,Win32,60,,,,,,,,,,,,,,,,,,,,,,,,,,,,,,,,,,,,,,,,,,,,,,,,,,,,,,,,,,,,,,,SoundMST/Toilet_B.wav,NEW,NA,,,toilet fluching,4.807,0,32,32,40,1
,,,,,,,,,,,,,,,,7,2021-10-14_09h34.11.900,Session1,2020.2.10,Win32,60,,,,,,,,,,,,,,,,,,,,,,,,,,,,,,,,,,,,,,,,,,,,,,,,,,,,,,,,,,,,,,,SoundMST/Heartbeat.wav,NEW,NA,,,heartbeat,3.816,0,33,33,6,1
,,,,,,,,,,,,,,,,7,2021-10-14_09h34.11.900,Session1,2020.2.10,Win32,60,,,,,,,,,,,,,,,,,,,,,,,,,,,,,,,,,,,,,,,,,,,,,,,,,,,,,,,,,,,,,,,SoundMST/Pour_C.wav,SIMILAR,NA,,,water to glass,4.834,0,34,34,79,1
,,,,,,,,,,,,,,,,7,2021-10-14_09h34.11.900,Session1,2020.2.10,Win32,60,,,,,,,,,,,,,,,,,,,,,,,,,,,,,,,,,,,,,,,,,,,,,,,,,,,,,,,,,,,,,,,SoundMST/Pour_F.wav,NEW,NA,,,water being poured into smth,11.266,0,35,35,37,1
,,,,,,,,,,,,,,,,7,2021-10-14_09h34.11.900,Session1,2020.2.10,Win32,60,,,,,,,,,,,,,,,,,,,,,,,,,,,,,,,,,,,,,,,,,,,,,,,,,,,,,,,,,,,,,,,SoundMST/Camera.wav,NEW,NA,,,taking picture,4.4,0,36,36,14,1
,,,,,,,,,,,,,,,,7,2021-10-14_09h34.11.900,Session1,2020.2.10,Win32,60,,,,,,,,,,,,,,,,,,,,,,,,,,,,,,,,,,,,,,,,,,,,,,,,,,,,,,,,,,,,,,,SoundMST/Airhorn.wav,NEW,NA,,,ship horn,6.749,0,37,37,27,1
,,,,,,,,,,,,,,,,7,2021-10-14_09h34.11.900,Session1,2020.2.10,Win32,60,,,,,,,,,,,,,,,,,,,,,,,,,,,,,,,,,,,,,,,,,,,,,,,,,,,,,,,,,,,,,,,SoundMST/Bubbles_B.wav,SIMILAR,NA,,,bubbles,3.476,0,38,38,87,1
,,,,,,,,,,,,,,,,7,2021-10-14_09h34.11.900,Session1,2020.2.10,Win32,60,,,,,,,,,,,,,,,,,,,,,,,,,,,,,,,,,,,,,,,,,,,,,,,,,,,,,,,,,,,,,,,SoundMST/Duck_B.wav,NEW,NA,,,duck,6.582,0,39,39,13,1
,,,,,,,,,,,,,,,,7,2021-10-14_09h34.11.900,Session1,2020.2.10,Win32,60,,,,,,,,,,,,,,,,,,,,,,,,,,,,,,,,,,,,,,,,,,,,,,,,,,,,,,,,,,,,,,,SoundMST/Bird_C.wav,NEW,NA,,,bird,3.469,0,40,40,22,1
,,,,,,,,,,,,,,,,7,2021-10-14_09h34.11.900,Session1,2020.2.10,Win32,60,,,,,,,,,,,,,,,,,,,,,,,,,,,,,,,,,,,,,,,,,,,,,,,,,,,,,,,,,,,,,,,SoundMST/Cough_I.wav,NEW,NA,,,coughing,3.524,0,41,41,18,1
,,,,,,,,,,,,,,,,7,2021-10-14_09h34.11.900,Session1,2020.2.10,Win32,60,,,,,,,,,,,,,,,,,,,,,,,,,,,,,,,,,,,,,,,,,,,,,,,,,,,,,,,,,,,,,,,SoundMST/Cat_A.wav,NEW,NA,,,kitten,3.866,0,42,42,26,1
,,,,,,,,,,,,,,,,7,2021-10-14_09h34.11.900,Session1,2020.2.10,Win32,60,,,,,,,,,,,,,,,,,,,,,,,,,,,,,,,,,,,,,,,,,,,,,,,,,,,,,,,,,,,,,,,SoundMST/Slurp.wav,NEW,NA,,,slurping,3.583,0,43,43,31,1
,,,,,,,,,,,,,,,,7,2021-10-14_09h34.11.900,Session1,2020.2.10,Win32,60,,,,,,,,,,,,,,,,,,,,,,,,,,,,,,,,,,,,,,,,,,,,,,,,,,,,,,,,,,,,,,,SoundMST/Droplet_B.wav,NEW,NA,,,drip,4.749,0,44,44,49,1
,,,,,,,,,,,,,,,,7,2021-10-14_09h34.11.900,Session1,2020.2.10,Win32,60,,,,,,,,,,,,,,,,,,,,,,,,,,,,,,,,,,,,,,,,,,,,,,,,,,,,,,,,,,,,,,,SoundMST/Siren_E.wav,NEW,NA,,,siren,3.775,0,45,45,54,1
,,,,,,,,,,,,,,,,7,2021-10-14_09h34.11.900,Session1,2020.2.10,Win32,60,,,,,,,,,,,,,,,,,,,,,,,,,,,,,,,,,,,,,,,,,,,,,,,,,,,,,,,,,,,,,,,SoundMST/Elephant_A.wav,SIMILAR,NA,,,elephent,3.609,0,46,46,68,1
,,,,,,,,,,,,,,,,7,2021-10-14_09h34.11.900,Session1,2020.2.10,Win32,60,,,,,,,,,,,,,,,,,,,,,,,,,,,,,,,,,,,,,,,,,,,,,,,,,,,,,,,,,,,,,,,SoundMST/Footsteps_F.wav,SIMILAR,NA,,,walking,3.55,0,47,47,80,1
,,,,,,,,,,,,,,,,7,2021-10-14_09h34.11.900,Session1,2020.2.10,Win32,60,,,,,,,,,,,,,,,,,,,,,,,,,,,,,,,,,,,,,,,,,,,,,,,,,,,,,,,,,,,,,,,SoundMST/Footsteps_C.wav,NEW,NA,,,walking,4.59,0,48,48,41,1
,,,,,,,,,,,,,,,,7,2021-10-14_09h34.11.900,Session1,2020.2.10,Win32,60,,,,,,,,,,,,,,,,,,,,,,,,,,,,,,,,,,,,,,,,,,,,,,,,,,,,,,,,,,,,,,,SoundMST/Trumpet_B.wav,NEW,NA,,,bugle call,5.482,0,49,49,5,1
,,,,,,,,,,,,,,,,7,2021-10-14_09h34.11.900,Session1,2020.2.10,Win32,60,,,,,,,,,,,,,,,,,,,,,,,,,,,,,,,,,,,,,,,,,,,,,,,,,,,,,,,,,,,,,,,SoundMST/DialTone.wav,NEW,NA,,,telephone line,6.735,0,50,50,46,1
,,,,,,,,,,,,,,,,7,2021-10-14_09h34.11.900,Session1,2020.2.10,Win32,60,,,,,,,,,,,,,,,,,,,,,,,,,,,,,,,,,,,,,,,,,,,,,,,,,,,,,,,,,,,,,,,SoundMST/Cello.wav,NEW,NA,,,cello,4.885,0,51,51,8,1
,,,,,,,,,,,,,,,,7,2021-10-14_09h34.11.900,Session1,2020.2.10,Win32,60,,,,,,,,,,,,,,,,,,,,,,,,,,,,,,,,,,,,,,,,,,,,,,,,,,,,,,,,,,,,,,,SoundMST/Baby_B.wav,SIMILAR,NA,,,baby crying,3.833,0,52,52,74,1
,,,,,,,,,,,,,,,,7,2021-10-14_09h34.11.900,Session1,2020.2.10,Win32,60,,,,,,,,,,,,,,,,,,,,,,,,,,,,,,,,,,,,,,,,,,,,,,,,,,,,,,,,,,,,,,,SoundMST/Piano_D.wav,NEW,NA,,,piano,4.251,0,53,53,7,1
,,,,,,,,,,,,,,,,7,2021-10-14_09h34.11.900,Session1,2020.2.10,Win32,60,,,,,,,,,,,,,,,,,,,,,,,,,,,,,,,,,,,,,,,,,,,,,,,,,,,,,,,,,,,,,,,SoundMST/Hammer_A.wav,NEW,NA,,,hammering smth,5.433,0,54,54,32,1
,,,,,,,,,,,,,,,,7,2021-10-14_09h34.11.900,Session1,2020.2.10,Win32,60,,,,,,,,,,,,,,,,,,,,,,,,,,,,,,,,,,,,,,,,,,,,,,,,,,,,,,,,,,,,,,,SoundMST/Chime_D.wav,NEW,NA,,,church bell,4.035,0,55,55,20,1
,,,,,,,,,,,,,,,,7,2021-10-14_09h34.11.900,Session1,2020.2.10,Win32,60,,,,,,,,,,,,,,,,,,,,,,,,,,,,,,,,,,,,,,,,,,,,,,,,,,,,,,,,,,,,,,,SoundMST/Cuckoo_A.wav,NEW,NA,,,cuckoo clock,3.756,0,56,56,10,1
,,,,,,,,,,,,,,,,7,2021-10-14_09h34.11.900,Session1,2020.2.10,Win32,60,,,,,,,,,,,,,,,,,,,,,,,,,,,,,,,,,,,,,,,,,,,,,,,,,,,,,,,,,,,,,,,SoundMST/Bird_A.wav,SIMILAR,NA,,,bird,4.082,0,57,57,75,1
,,,,,,,,,,,,,,,,7,2021-10-14_09h34.11.900,Session1,2020.2.10,Win32,60,,,,,,,,,,,,,,,,,,,,,,,,,,,,,,,,,,,,,,,,,,,,,,,,,,,,,,,,,,,,,,,SoundMST/Bowlingpins.wav,NEW,NA,,,bowling ally,3.566,0,58,58,59,1
,,,,,,,,,,,,,,,,7,2021-10-14_09h34.11.900,Session1,2020.2.10,Win32,60,,,,,,,,,,,,,,,,,,,,,,,,,,,,,,,,,,,,,,,,,,,,,,,,,,,,,,,,,,,,,,,SoundMST/Baby_C.wav,NEW,NA,,,happy baby,4.856,0,59,59,19,1
,,,,,,,,,,,,,,,,7,2021-10-14_09h34.11.900,Session1,2020.2.10,Win32,60,,,,,,,,,,,,,,,,,,,,,,,,,,,,,,,,,,,,,,,,,,,,,,,,,,,,,,,,,,,,,,,SoundMST/Whistle_B.wav,NEW,NA,,,police whislte,4.133,0,60,60,51,1
,,,,,,,,,,,,,,,,7,2021-10-14_09h34.11.900,Session1,2020.2.10,Win32,60,,,,,,,,,,,,,,,,,,,,,,,,,,,,,,,,,,,,,,,,,,,,,,,,,,,,,,,,,,,,,,,SoundMST/ManWhistle.wav,NEW,NA,,,whistling,4.168,0,61,61,60,1
,,,,,,,,,,,,,,,,7,2021-10-14_09h34.11.900,Session1,2020.2.10,Win32,60,,,,,,,,,,,,,,,,,,,,,,,,,,,,,,,,,,,,,,,,,,,,,,,,,,,,,,,,,,,,,,,SoundMST/Fireworks.wav,NEW,NA,,,raing outside,6.755,0,62,62,52,1
,,,,,,,,,,,,,,,,7,2021-10-14_09h34.11.900,Session1,2020.2.10,Win32,60,,,,,,,,,,,,,,,,,,,,,,,,,,,,,,,,,,,,,,,,,,,,,,,,,,,,,,,,,,,,,,,SoundMST/Sleighbells_B.wav,NEW,NA,,,jingle bells,4.548,0,63,63,25,1
,,,,,,,,,,,,,,,,7,2021-10-14_09h34.11.900,Session1,2020.2.10,Win32,60,,,,,,,,,,,,,,,,,,,,,,,,,,,,,,,,,,,,,,,,,,,,,,,,,,,,,,,,,,,,,,,SoundMST/Cough_J.wav,SIMILAR,NA,,,coughing,3.582,0,64,64,76,1
,,,,,,,,,,,,,,,,7,2021-10-14_09h34.11.900,Session1,2020.2.10,Win32,60,,,,,,,,,,,,,,,,,,,,,,,,,,,,,,,,,,,,,,,,,,,,,,,,,,,,,,,,,,,,,,,SoundMST/Dog_I.wav,SIMILAR,NA,,,dog barking,3.586,0,65,65,77,1
,,,,,,,,,,,,,,,,7,2021-10-14_09h34.11.900,Session1,2020.2.10,Win32,60,,,,,,,,,,,,,,,,,,,,,,,,,,,,,,,,,,,,,,,,,,,,,,,,,,,,,,,,,,,,,,,SoundMST/Duck_A.wav,SIMILAR,NA,,,child's toy,4.9,0,66,66,69,1
,,,,,,,,,,,,,,,,7,2021-10-14_09h34.11.900,Session1,2020.2.10,Win32,60,,,,,,,,,,,,,,,,,,,,,,,,,,,,,,,,,,,,,,,,,,,,,,,,,,,,,,,,,,,,,,,SoundMST/Steam.wav,NEW,NA,,,train whistle,3.75,0,67,67,9,1
,,,,,,,,,,,,,,,,7,2021-10-14_09h34.11.900,Session1,2020.2.10,Win32,60,,,,,,,,,,,,,,,,,,,,,,,,,,,,,,,,,,,,,,,,,,,,,,,,,,,,,,,,,,,,,,,SoundMST/Dog_H.wav,NEW,NA,,,dog barking,3.751,0,68,68,29,1
,,,,,,,,,,,,,,,,7,2021-10-14_09h34.11.900,Session1,2020.2.10,Win32,60,,,,,,,,,,,,,,,,,,,,,,,,,,,,,,,,,,,,,,,,,,,,,,,,,,,,,,,,,,,,,,,SoundMST/ManWhistle_E.wav,SIMILAR,NA,,,whistling,4.538,0,69,69,85,1
,,,,,,,,,,,,,,,,7,2021-10-14_09h34.11.900,Session1,2020.2.10,Win32,60,,,,,,,,,,,,,,,,,,,,,,,,,,,,,,,,,,,,,,,,,,,,,,,,,,,,,,,,,,,,,,,SoundMST/Airplane_B.wav,NEW,NA,,,plane,4.066,0,70,70,36,1
,,,,,,,,,,,,,,,,7,2021-10-14_09h34.11.900,Session1,2020.2.10,Win32,60,,,,,,,,,,,,,,,,,,,,,,,,,,,,,,,,,,,,,,,,,,,,,,,,,,,,,,,,,,,,,,,SoundMST/Cow.wav,NEW,NA,,,cow,2.854,0,71,71,44,1
,,,,,,,,,,,,,,,,7,2021-10-14_09h34.11.900,Session1,2020.2.10,Win32,60,,,,,,,,,,,,,,,,,,,,,,,,,,,,,,,,,,,,,,,,,,,,,,,,,,,,,,,,,,,,,,,SoundMST/Writing_C.wav,SIMILAR,NA,,,wrtiign on chalkboard,4.349,0,72,72,64,1
,,,,,,,,,,,,,,,,7,2021-10-14_09h34.11.900,Session1,2020.2.10,Win32,60,,,,,,,,,,,,,,,,,,,,,,,,,,,,,,,,,,,,,,,,,,,,,,,,,,,,,,,,,,,,,,,SoundMST/Phone_E.wav,SIMILAR,NA,,,telephone ring,3.767,0,73,73,70,1
,,,,,,,,,,,,,,,,7,2021-10-14_09h34.11.900,Session1,2020.2.10,Win32,60,,,,,,,,,,,,,,,,,,,,,,,,,,,,,,,,,,,,,,,,,,,,,,,,,,,,,,,,,,,,,,,SoundMST/Coin_D.wav,NEW,NA,,,counting change,4.2,0,74,74,61,1
,,,,,,,,,,,,,,,,7,2021-10-14_09h34.11.900,Session1,2020.2.10,Win32,60,,,,,,,,,,,,,,,,,,,,,,,,,,,,,,,,,,,,,,,,,,,,,,,,,,,,,,,,,,,,,,,SoundMST/Typing.wav,NEW,NA,,,typing on keyboard,4.617,0,75,75,47,1
,,,,,,,,,,,,,,,,7,2021-10-14_09h34.11.900,Session1,2020.2.10,Win32,60,,,,,,,,,,,,,,,,,,,,,,,,,,,,,,,,,,,,,,,,,,,,,,,,,,,,,,,,,,,,,,,SoundMST/Whistle_C.wav,SIMILAR,NA,,,police whistle,3.4,0,76,76,82,1
,,,,,,,,,,,,,,,,7,2021-10-14_09h34.11.900,Session1,2020.2.10,Win32,60,,,,,,,,,,,,,,,,,,,,,,,,,,,,,,,,,,,,,,,,,,,,,,,,,,,,,,,,,,,,,,,SoundMST/Mosquito_B.wav,NEW,NA,,,mosquite,7.665,0,77,77,17,1
,,,,,,,,,,,,,,,,7,2021-10-14_09h34.11.900,Session1,2020.2.10,Win32,60,,,,,,,,,,,,,,,,,,,,,,,,,,,,,,,,,,,,,,,,,,,,,,,,,,,,,,,,,,,,,,,SoundMST/PaperRip.wav,NEW,NA,,,tearing paoer/cloth,5.84,0,78,78,56,1
,,,,,,,,,,,,,,,,7,2021-10-14_09h34.11.900,Session1,2020.2.10,Win32,60,,,,,,,,,,,,,,,,,,,,,,,,,,,,,,,,,,,,,,,,,,,,,,,,,,,,,,,,,,,,,,,SoundMST/Piano_C.wav,SIMILAR,NA,,,piano,4.149,0,79,79,67,1
,,,,,,,,,,,,,,,,7,2021-10-14_09h34.11.900,Session1,2020.2.10,Win32,60,,,,,,,,,,,,,,,,,,,,,,,,,,,,,,,,,,,,,,,,,,,,,,,,,,,,,,,,,,,,,,,SoundMST/CarStart_E.wav,NEW,NA,,,starting a car,3.966,0,80,80,2,1
,,,,,,,,,,,,,,,,7,2021-10-14_09h34.11.900,Session1,2020.2.10,Win32,60,,,,,,,,,,,,,,,,,,,,,,,,,,,,,,,,,,,,,,,,,,,,,,,,,,,,,,,,,,,,,,,SoundMST/Clap_A.wav,NEW,NA,,,applause,4.201,0,81,81,48,1
,,,,,,,,,,,,,,,,7,2021-10-14_09h34.11.900,Session1,2020.2.10,Win32,60,,,,,,,,,,,,,,,,,,,,,,,,,,,,,,,,,,,,,,,,,,,,,,,,,,,,,,,,,,,,,,,SoundMST/Howl.wav,NEW,NA,,,wolf howling,4.121,0,82,82,33,1
,,,,,,,,,,,,,,,,7,2021-10-14_09h34.11.900,Session1,2020.2.10,Win32,60,,,,,,,,,,,,,,,,,,,,,,,,,,,,,,,,,,,,,,,,,,,,,,,,,,,,,,,,,,,,,,,SoundMST/Trumpet_C.wav,SIMILAR,NA,,,trumpet playing,5.517,0,83,83,66,1
,,,,,,,,,,,,,,,,7,2021-10-14_09h34.11.900,Session1,2020.2.10,Win32,60,,,,,,,,,,,,,,,,,,,,,,,,,,,,,,,,,,,,,,,,,,,,,,,,,,,,,,,,,,,,,,,SoundMST/Chime_A.wav,SIMILAR,NA,,,church bell,3.868,0,84,84,72,1
,,,,,,,,,,,,,,,,7,2021-10-14_09h34.11.900,Session1,2020.2.10,Win32,60,,,,,,,,,,,,,,,,,,,,,,,,,,,,,,,,,,,,,,,,,,,,,,,,,,,,,,,,,,,,,,,SoundMST/CarStart_D.wav,SIMILAR,NA,,,starting a car,5.281,0,85,85,65,1
,,,,,,,,,,,,,,,,7,2021-10-14_09h34.11.900,Session1,2020.2.10,Win32,60,,,,,,,,,,,,,,,,,,,,,,,,,,,,,,,,,,,,,,,,,,,,,,,,,,,,,,,,,,,,,,,SoundMST/Sneeze_B.wav,NEW,NA,,,sneezing,3.549,0,86,86,43,1
,,,,,,,,,,,,,,,,7,2021-10-14_09h34.11.900,Session1,2020.2.10,Win32,60,,,,,,,,,,,,,,,,,,,,,,,,,,,,,,,,,,,,,,,,,,,,,,,,,,,,,,,,,,,,,,,SoundMST/Crow_A.wav,NEW,NA,,,crow,4.318,0,87,87,58,1
=======
,,,,,,,,,,,,,,,,7,2021-10-14_09h34.11.900,Session1,2020.2.10,Win32,60,,,,,,,,,,,,,,,,,,,,,space,6.17,,,,,,,,,,,,,,,,,,,,,,,,,,,,,,,,,,,,,,,,,SoundMST/HairDryer_A.wav,NEW,NA,space,21.942,space,4.895,0,0,0,38,1
,,,,,,,,,,,,,,,,7,2021-10-14_09h34.11.900,Session1,2020.2.10,Win32,60,,,,,,,,,,,,,,,,,,,,,,,,,,,,,,,,,,,,,,,,,,,,,,,,,,,,,,,,,,,,,,,SoundMST/Chomp_C.wav,SIMILAR,NA,,,space,3.733,0,1,1,84,1
,,,,,,,,,,,,,,,,7,2021-10-14_09h34.11.900,Session1,2020.2.10,Win32,60,,,,,,,,,,,,,,,,,,,,,,,,,,,,,,,,,,,,,,,,,,,,,,,,,,,,,,,,,,,,,,,SoundMST/Faucet_C.wav,SIMILAR,NA,,,space,3.804,0,2,2,73,1
,,,,,,,,,,,,,,,,7,2021-10-14_09h34.11.900,Session1,2020.2.10,Win32,60,,,,,,,,,,,,,,,,,,,,,,,,,,,,,,,,,,,,,,,,,,,,,,,,,,,,,,,,,,,,,,,SoundMST/Cup.wav,NEW,NA,,,space,6.868,0,3,3,42,1
,,,,,,,,,,,,,,,,7,2021-10-14_09h34.11.900,Session1,2020.2.10,Win32,60,,,,,,,,,,,,,,,,,,,,,,,,,,,,,,,,,,,,,,,,,,,,,,,,,,,,,,,,,,,,,,,SoundMST/Snore_E.wav,SIMILAR,NA,,,space,4.251,0,4,4,71,1
,,,,,,,,,,,,,,,,7,2021-10-14_09h34.11.900,Session1,2020.2.10,Win32,60,,,,,,,,,,,,,,,,,,,,,,,,,,,,,,,,,,,,,,,,,,,,,,,,,,,,,,,,,,,,,,,SoundMST/Growl_H.wav,NEW,NA,,,space,3.453,0,5,5,45,1
,,,,,,,,,,,,,,,,7,2021-10-14_09h34.11.900,Session1,2020.2.10,Win32,60,,,,,,,,,,,,,,,,,,,,,,,,,,,,,,,,,,,,,,,,,,,,,,,,,,,,,,,,,,,,,,,SoundMST/Faucet_A.wav,NEW,NA,,,space,4.002,0,6,6,21,1
,,,,,,,,,,,,,,,,7,2021-10-14_09h34.11.900,Session1,2020.2.10,Win32,60,,,,,,,,,,,,,,,,,,,,,,,,,,,,,,,,,,,,,,,,,,,,,,,,,,,,,,,,,,,,,,,SoundMST/Clap_D.wav,SIMILAR,NA,,,space,9.688,0,7,7,81,1
,,,,,,,,,,,,,,,,7,2021-10-14_09h34.11.900,Session1,2020.2.10,Win32,60,,,,,,,,,,,,,,,,,,,,,,,,,,,,,,,,,,,,,,,,,,,,,,,,,,,,,,,,,,,,,,,SoundMST/Horse.wav,NEW,NA,,,space,3.75,0,8,8,35,1
,,,,,,,,,,,,,,,,7,2021-10-14_09h34.11.900,Session1,2020.2.10,Win32,60,,,,,,,,,,,,,,,,,,,,,,,,,,,,,,,,,,,,,,,,,,,,,,,,,,,,,,,,,,,,,,,SoundMST/Snore_C.wav,NEW,NA,,,space,3.522,0,9,9,16,1
,,,,,,,,,,,,,,,,7,2021-10-14_09h34.11.900,Session1,2020.2.10,Win32,60,,,,,,,,,,,,,,,,,,,,,,,,,,,,,,,,,,,,,,,,,,,,,,,,,,,,,,,,,,,,,,,SoundMST/Bullfrog.wav,NEW,NA,,,space,3.867,0,10,10,23,1
,,,,,,,,,,,,,,,,7,2021-10-14_09h34.11.900,Session1,2020.2.10,Win32,60,,,,,,,,,,,,,,,,,,,,,,,,,,,,,,,,,,,,,,,,,,,,,,,,,,,,,,,,,,,,,,,SoundMST/Bagpipe.wav,NEW,NA,,,space,3.299,0,11,11,53,1
,,,,,,,,,,,,,,,,7,2021-10-14_09h34.11.900,Session1,2020.2.10,Win32,60,,,,,,,,,,,,,,,,,,,,,,,,,,,,,,,,,,,,,,,,,,,,,,,,,,,,,,,,,,,,,,,SoundMST/Writing_A.wav,NEW,NA,,,space,3.955,0,12,12,1,1
,,,,,,,,,,,,,,,,7,2021-10-14_09h34.11.900,Session1,2020.2.10,Win32,60,,,,,,,,,,,,,,,,,,,,,,,,,,,,,,,,,,,,,,,,,,,,,,,,,,,,,,,,,,,,,,,SoundMST/Buzz.wav,NEW,NA,,,space,4.023,0,13,13,0,1
,,,,,,,,,,,,,,,,7,2021-10-14_09h34.11.900,Session1,2020.2.10,Win32,60,,,,,,,,,,,,,,,,,,,,,,,,,,,,,,,,,,,,,,,,,,,,,,,,,,,,,,,,,,,,,,,SoundMST/Guitar_B.wav,NEW,NA,,,space,5.873,0,14,14,24,1
,,,,,,,,,,,,,,,,7,2021-10-14_09h34.11.900,Session1,2020.2.10,Win32,60,,,,,,,,,,,,,,,,,,,,,,,,,,,,,,,,,,,,,,,,,,,,,,,,,,,,,,,,,,,,,,,SoundMST/Siren_A.wav,SIMILAR,NA,,,space,4.504,0,15,15,83,1
,,,,,,,,,,,,,,,,7,2021-10-14_09h34.11.900,Session1,2020.2.10,Win32,60,,,,,,,,,,,,,,,,,,,,,,,,,,,,,,,,,,,,,,,,,,,,,,,,,,,,,,,,,,,,,,,SoundMST/Phone_F.wav,NEW,NA,,,space,3.432,0,16,16,15,1
,,,,,,,,,,,,,,,,7,2021-10-14_09h34.11.900,Session1,2020.2.10,Win32,60,,,,,,,,,,,,,,,,,,,,,,,,,,,,,,,,,,,,,,,,,,,,,,,,,,,,,,,,,,,,,,,SoundMST/Bubbles_A.wav,NEW,NA,,,space,3.604,0,17,17,63,1
,,,,,,,,,,,,,,,,7,2021-10-14_09h34.11.900,Session1,2020.2.10,Win32,60,,,,,,,,,,,,,,,,,,,,,,,,,,,,,,,,,,,,,,,,,,,,,,,,,,,,,,,,,,,,,,,SoundMST/Goat_C.wav,NEW,NA,,,space,2.823,0,18,18,12,1
,,,,,,,,,,,,,,,,7,2021-10-14_09h34.11.900,Session1,2020.2.10,Win32,60,,,,,,,,,,,,,,,,,,,,,,,,,,,,,,,,,,,,,,,,,,,,,,,,,,,,,,,,,,,,,,,SoundMST/Helicopter_A.wav,NEW,NA,,,space,3.166,0,19,19,62,1
,,,,,,,,,,,,,,,,7,2021-10-14_09h34.11.900,Session1,2020.2.10,Win32,60,,,,,,,,,,,,,,,,,,,,,,,,,,,,,,,,,,,,,,,,,,,,,,,,,,,,,,,,,,,,,,,SoundMST/IceDrop.wav,NEW,NA,,,space,5.488,0,20,20,55,1
,,,,,,,,,,,,,,,,7,2021-10-14_09h34.11.900,Session1,2020.2.10,Win32,60,,,,,,,,,,,,,,,,,,,,,,,,,,,,,,,,,,,,,,,,,,,,,,,,,,,,,,,,,,,,,,,SoundMST/Puff_A.wav,NEW,NA,,,space,7.522,0,21,21,4,1
,,,,,,,,,,,,,,,,7,2021-10-14_09h34.11.900,Session1,2020.2.10,Win32,60,,,,,,,,,,,,,,,,,,,,,,,,,,,,,,,,,,,,,,,,,,,,,,,,,,,,,,,,,,,,,,,SoundMST/Wind_B.wav,NEW,NA,,,space,5.584,0,22,22,50,1
,,,,,,,,,,,,,,,,7,2021-10-14_09h34.11.900,Session1,2020.2.10,Win32,60,,,,,,,,,,,,,,,,,,,,,,,,,,,,,,,,,,,,,,,,,,,,,,,,,,,,,,,,,,,,,,,SoundMST/Laugh_D.wav,SIMILAR,NA,,,space,4.122,0,23,23,78,1
,,,,,,,,,,,,,,,,7,2021-10-14_09h34.11.900,Session1,2020.2.10,Win32,60,,,,,,,,,,,,,,,,,,,,,,,,,,,,,,,,,,,,,,,,,,,,,,,,,,,,,,,,,,,,,,,SoundMST/Laugh_A.wav,NEW,NA,,,space,3.601,0,24,24,28,1
,,,,,,,,,,,,,,,,7,2021-10-14_09h34.11.900,Session1,2020.2.10,Win32,60,,,,,,,,,,,,,,,,,,,,,,,,,,,,,,,,,,,,,,,,,,,,,,,,,,,,,,,,,,,,,,,SoundMST/Donkey.wav,NEW,NA,,,space,3.817,0,25,25,30,1
,,,,,,,,,,,,,,,,7,2021-10-14_09h34.11.900,Session1,2020.2.10,Win32,60,,,,,,,,,,,,,,,,,,,,,,,,,,,,,,,,,,,,,,,,,,,,,,,,,,,,,,,,,,,,,,,SoundMST/Chicken_A.wav,NEW,NA,,,space,3.417,0,26,26,11,1
,,,,,,,,,,,,,,,,7,2021-10-14_09h34.11.900,Session1,2020.2.10,Win32,60,,,,,,,,,,,,,,,,,,,,,,,,,,,,,,,,,,,,,,,,,,,,,,,,,,,,,,,,,,,,,,,SoundMST/Coin_E.wav,SIMILAR,NA,,,space,5.165,0,27,27,86,1
,,,,,,,,,,,,,,,,7,2021-10-14_09h34.11.900,Session1,2020.2.10,Win32,60,,,,,,,,,,,,,,,,,,,,,,,,,,,,,,,,,,,,,,,,,,,,,,,,,,,,,,,,,,,,,,,SoundMST/Elephant_C.wav,NEW,NA,,,space,4.805,0,28,28,3,1
,,,,,,,,,,,,,,,,7,2021-10-14_09h34.11.900,Session1,2020.2.10,Win32,60,,,,,,,,,,,,,,,,,,,,,,,,,,,,,,,,,,,,,,,,,,,,,,,,,,,,,,,,,,,,,,,SoundMST/Chomp_A.wav,NEW,NA,,,space,5.488,0,29,29,57,1
,,,,,,,,,,,,,,,,7,2021-10-14_09h34.11.900,Session1,2020.2.10,Win32,60,,,,,,,,,,,,,,,,,,,,,,,,,,,,,,,,,,,,,,,,,,,,,,,,,,,,,,,,,,,,,,,SoundMST/Thunder_A.wav,NEW,NA,,,space,4.518,0,30,30,39,1
,,,,,,,,,,,,,,,,7,2021-10-14_09h34.11.900,Session1,2020.2.10,Win32,60,,,,,,,,,,,,,,,,,,,,,,,,,,,,,,,,,,,,,,,,,,,,,,,,,,,,,,,,,,,,,,,SoundMST/Printer.wav,NEW,NA,,,space,11.052,0,31,31,34,1
,,,,,,,,,,,,,,,,7,2021-10-14_09h34.11.900,Session1,2020.2.10,Win32,60,,,,,,,,,,,,,,,,,,,,,,,,,,,,,,,,,,,,,,,,,,,,,,,,,,,,,,,,,,,,,,,SoundMST/Toilet_B.wav,NEW,NA,,,space,4.807,0,32,32,40,1
,,,,,,,,,,,,,,,,7,2021-10-14_09h34.11.900,Session1,2020.2.10,Win32,60,,,,,,,,,,,,,,,,,,,,,,,,,,,,,,,,,,,,,,,,,,,,,,,,,,,,,,,,,,,,,,,SoundMST/Heartbeat.wav,NEW,NA,,,space,3.816,0,33,33,6,1
,,,,,,,,,,,,,,,,7,2021-10-14_09h34.11.900,Session1,2020.2.10,Win32,60,,,,,,,,,,,,,,,,,,,,,,,,,,,,,,,,,,,,,,,,,,,,,,,,,,,,,,,,,,,,,,,SoundMST/Pour_C.wav,SIMILAR,NA,,,space,4.834,0,34,34,79,1
,,,,,,,,,,,,,,,,7,2021-10-14_09h34.11.900,Session1,2020.2.10,Win32,60,,,,,,,,,,,,,,,,,,,,,,,,,,,,,,,,,,,,,,,,,,,,,,,,,,,,,,,,,,,,,,,SoundMST/Pour_F.wav,NEW,NA,,,space,11.266,0,35,35,37,1
,,,,,,,,,,,,,,,,7,2021-10-14_09h34.11.900,Session1,2020.2.10,Win32,60,,,,,,,,,,,,,,,,,,,,,,,,,,,,,,,,,,,,,,,,,,,,,,,,,,,,,,,,,,,,,,,SoundMST/Camera.wav,NEW,NA,,,space,4.4,0,36,36,14,1
,,,,,,,,,,,,,,,,7,2021-10-14_09h34.11.900,Session1,2020.2.10,Win32,60,,,,,,,,,,,,,,,,,,,,,,,,,,,,,,,,,,,,,,,,,,,,,,,,,,,,,,,,,,,,,,,SoundMST/Airhorn.wav,NEW,NA,,,space,6.749,0,37,37,27,1
,,,,,,,,,,,,,,,,7,2021-10-14_09h34.11.900,Session1,2020.2.10,Win32,60,,,,,,,,,,,,,,,,,,,,,,,,,,,,,,,,,,,,,,,,,,,,,,,,,,,,,,,,,,,,,,,SoundMST/Bubbles_B.wav,SIMILAR,NA,,,space,3.476,0,38,38,87,1
,,,,,,,,,,,,,,,,7,2021-10-14_09h34.11.900,Session1,2020.2.10,Win32,60,,,,,,,,,,,,,,,,,,,,,,,,,,,,,,,,,,,,,,,,,,,,,,,,,,,,,,,,,,,,,,,SoundMST/Duck_B.wav,NEW,NA,,,space,6.582,0,39,39,13,1
,,,,,,,,,,,,,,,,7,2021-10-14_09h34.11.900,Session1,2020.2.10,Win32,60,,,,,,,,,,,,,,,,,,,,,,,,,,,,,,,,,,,,,,,,,,,,,,,,,,,,,,,,,,,,,,,SoundMST/Bird_C.wav,NEW,NA,,,space,3.469,0,40,40,22,1
,,,,,,,,,,,,,,,,7,2021-10-14_09h34.11.900,Session1,2020.2.10,Win32,60,,,,,,,,,,,,,,,,,,,,,,,,,,,,,,,,,,,,,,,,,,,,,,,,,,,,,,,,,,,,,,,SoundMST/Cough_I.wav,NEW,NA,,,space,3.524,0,41,41,18,1
,,,,,,,,,,,,,,,,7,2021-10-14_09h34.11.900,Session1,2020.2.10,Win32,60,,,,,,,,,,,,,,,,,,,,,,,,,,,,,,,,,,,,,,,,,,,,,,,,,,,,,,,,,,,,,,,SoundMST/Cat_A.wav,NEW,NA,,,space,3.866,0,42,42,26,1
,,,,,,,,,,,,,,,,7,2021-10-14_09h34.11.900,Session1,2020.2.10,Win32,60,,,,,,,,,,,,,,,,,,,,,,,,,,,,,,,,,,,,,,,,,,,,,,,,,,,,,,,,,,,,,,,SoundMST/Slurp.wav,NEW,NA,,,space,3.583,0,43,43,31,1
,,,,,,,,,,,,,,,,7,2021-10-14_09h34.11.900,Session1,2020.2.10,Win32,60,,,,,,,,,,,,,,,,,,,,,,,,,,,,,,,,,,,,,,,,,,,,,,,,,,,,,,,,,,,,,,,SoundMST/Droplet_B.wav,NEW,NA,,,space,4.749,0,44,44,49,1
,,,,,,,,,,,,,,,,7,2021-10-14_09h34.11.900,Session1,2020.2.10,Win32,60,,,,,,,,,,,,,,,,,,,,,,,,,,,,,,,,,,,,,,,,,,,,,,,,,,,,,,,,,,,,,,,SoundMST/Siren_E.wav,NEW,NA,,,space,3.775,0,45,45,54,1
,,,,,,,,,,,,,,,,7,2021-10-14_09h34.11.900,Session1,2020.2.10,Win32,60,,,,,,,,,,,,,,,,,,,,,,,,,,,,,,,,,,,,,,,,,,,,,,,,,,,,,,,,,,,,,,,SoundMST/Elephant_A.wav,SIMILAR,NA,,,space,3.609,0,46,46,68,1
,,,,,,,,,,,,,,,,7,2021-10-14_09h34.11.900,Session1,2020.2.10,Win32,60,,,,,,,,,,,,,,,,,,,,,,,,,,,,,,,,,,,,,,,,,,,,,,,,,,,,,,,,,,,,,,,SoundMST/Footsteps_F.wav,SIMILAR,NA,,,space,3.55,0,47,47,80,1
,,,,,,,,,,,,,,,,7,2021-10-14_09h34.11.900,Session1,2020.2.10,Win32,60,,,,,,,,,,,,,,,,,,,,,,,,,,,,,,,,,,,,,,,,,,,,,,,,,,,,,,,,,,,,,,,SoundMST/Footsteps_C.wav,NEW,NA,,,space,4.59,0,48,48,41,1
,,,,,,,,,,,,,,,,7,2021-10-14_09h34.11.900,Session1,2020.2.10,Win32,60,,,,,,,,,,,,,,,,,,,,,,,,,,,,,,,,,,,,,,,,,,,,,,,,,,,,,,,,,,,,,,,SoundMST/Trumpet_B.wav,NEW,NA,,,space,5.482,0,49,49,5,1
,,,,,,,,,,,,,,,,7,2021-10-14_09h34.11.900,Session1,2020.2.10,Win32,60,,,,,,,,,,,,,,,,,,,,,,,,,,,,,,,,,,,,,,,,,,,,,,,,,,,,,,,,,,,,,,,SoundMST/DialTone.wav,NEW,NA,,,space,6.735,0,50,50,46,1
,,,,,,,,,,,,,,,,7,2021-10-14_09h34.11.900,Session1,2020.2.10,Win32,60,,,,,,,,,,,,,,,,,,,,,,,,,,,,,,,,,,,,,,,,,,,,,,,,,,,,,,,,,,,,,,,SoundMST/Cello.wav,NEW,NA,,,space,4.885,0,51,51,8,1
,,,,,,,,,,,,,,,,7,2021-10-14_09h34.11.900,Session1,2020.2.10,Win32,60,,,,,,,,,,,,,,,,,,,,,,,,,,,,,,,,,,,,,,,,,,,,,,,,,,,,,,,,,,,,,,,SoundMST/Baby_B.wav,SIMILAR,NA,,,space,3.833,0,52,52,74,1
,,,,,,,,,,,,,,,,7,2021-10-14_09h34.11.900,Session1,2020.2.10,Win32,60,,,,,,,,,,,,,,,,,,,,,,,,,,,,,,,,,,,,,,,,,,,,,,,,,,,,,,,,,,,,,,,SoundMST/Piano_D.wav,NEW,NA,,,space,4.251,0,53,53,7,1
,,,,,,,,,,,,,,,,7,2021-10-14_09h34.11.900,Session1,2020.2.10,Win32,60,,,,,,,,,,,,,,,,,,,,,,,,,,,,,,,,,,,,,,,,,,,,,,,,,,,,,,,,,,,,,,,SoundMST/Hammer_A.wav,NEW,NA,,,space,5.433,0,54,54,32,1
,,,,,,,,,,,,,,,,7,2021-10-14_09h34.11.900,Session1,2020.2.10,Win32,60,,,,,,,,,,,,,,,,,,,,,,,,,,,,,,,,,,,,,,,,,,,,,,,,,,,,,,,,,,,,,,,SoundMST/Chime_D.wav,NEW,NA,,,space,4.035,0,55,55,20,1
,,,,,,,,,,,,,,,,7,2021-10-14_09h34.11.900,Session1,2020.2.10,Win32,60,,,,,,,,,,,,,,,,,,,,,,,,,,,,,,,,,,,,,,,,,,,,,,,,,,,,,,,,,,,,,,,SoundMST/Cuckoo_A.wav,NEW,NA,,,space,3.756,0,56,56,10,1
,,,,,,,,,,,,,,,,7,2021-10-14_09h34.11.900,Session1,2020.2.10,Win32,60,,,,,,,,,,,,,,,,,,,,,,,,,,,,,,,,,,,,,,,,,,,,,,,,,,,,,,,,,,,,,,,SoundMST/Bird_A.wav,SIMILAR,NA,,,space,4.082,0,57,57,75,1
,,,,,,,,,,,,,,,,7,2021-10-14_09h34.11.900,Session1,2020.2.10,Win32,60,,,,,,,,,,,,,,,,,,,,,,,,,,,,,,,,,,,,,,,,,,,,,,,,,,,,,,,,,,,,,,,SoundMST/Bowlingpins.wav,NEW,NA,,,space,3.566,0,58,58,59,1
,,,,,,,,,,,,,,,,7,2021-10-14_09h34.11.900,Session1,2020.2.10,Win32,60,,,,,,,,,,,,,,,,,,,,,,,,,,,,,,,,,,,,,,,,,,,,,,,,,,,,,,,,,,,,,,,SoundMST/Baby_C.wav,NEW,NA,,,space,4.856,0,59,59,19,1
,,,,,,,,,,,,,,,,7,2021-10-14_09h34.11.900,Session1,2020.2.10,Win32,60,,,,,,,,,,,,,,,,,,,,,,,,,,,,,,,,,,,,,,,,,,,,,,,,,,,,,,,,,,,,,,,SoundMST/Whistle_B.wav,NEW,NA,,,space,4.133,0,60,60,51,1
,,,,,,,,,,,,,,,,7,2021-10-14_09h34.11.900,Session1,2020.2.10,Win32,60,,,,,,,,,,,,,,,,,,,,,,,,,,,,,,,,,,,,,,,,,,,,,,,,,,,,,,,,,,,,,,,SoundMST/ManWhistle.wav,NEW,NA,,,space,4.168,0,61,61,60,1
,,,,,,,,,,,,,,,,7,2021-10-14_09h34.11.900,Session1,2020.2.10,Win32,60,,,,,,,,,,,,,,,,,,,,,,,,,,,,,,,,,,,,,,,,,,,,,,,,,,,,,,,,,,,,,,,SoundMST/Fireworks.wav,NEW,NA,,,space,6.755,0,62,62,52,1
,,,,,,,,,,,,,,,,7,2021-10-14_09h34.11.900,Session1,2020.2.10,Win32,60,,,,,,,,,,,,,,,,,,,,,,,,,,,,,,,,,,,,,,,,,,,,,,,,,,,,,,,,,,,,,,,SoundMST/Sleighbells_B.wav,NEW,NA,,,space,4.548,0,63,63,25,1
,,,,,,,,,,,,,,,,7,2021-10-14_09h34.11.900,Session1,2020.2.10,Win32,60,,,,,,,,,,,,,,,,,,,,,,,,,,,,,,,,,,,,,,,,,,,,,,,,,,,,,,,,,,,,,,,SoundMST/Cough_J.wav,SIMILAR,NA,,,space,3.582,0,64,64,76,1
,,,,,,,,,,,,,,,,7,2021-10-14_09h34.11.900,Session1,2020.2.10,Win32,60,,,,,,,,,,,,,,,,,,,,,,,,,,,,,,,,,,,,,,,,,,,,,,,,,,,,,,,,,,,,,,,SoundMST/Dog_I.wav,SIMILAR,NA,,,space,3.586,0,65,65,77,1
,,,,,,,,,,,,,,,,7,2021-10-14_09h34.11.900,Session1,2020.2.10,Win32,60,,,,,,,,,,,,,,,,,,,,,,,,,,,,,,,,,,,,,,,,,,,,,,,,,,,,,,,,,,,,,,,SoundMST/Duck_A.wav,SIMILAR,NA,,,space,4.9,0,66,66,69,1
,,,,,,,,,,,,,,,,7,2021-10-14_09h34.11.900,Session1,2020.2.10,Win32,60,,,,,,,,,,,,,,,,,,,,,,,,,,,,,,,,,,,,,,,,,,,,,,,,,,,,,,,,,,,,,,,SoundMST/Steam.wav,NEW,NA,,,space,3.75,0,67,67,9,1
,,,,,,,,,,,,,,,,7,2021-10-14_09h34.11.900,Session1,2020.2.10,Win32,60,,,,,,,,,,,,,,,,,,,,,,,,,,,,,,,,,,,,,,,,,,,,,,,,,,,,,,,,,,,,,,,SoundMST/Dog_H.wav,NEW,NA,,,space,3.751,0,68,68,29,1
,,,,,,,,,,,,,,,,7,2021-10-14_09h34.11.900,Session1,2020.2.10,Win32,60,,,,,,,,,,,,,,,,,,,,,,,,,,,,,,,,,,,,,,,,,,,,,,,,,,,,,,,,,,,,,,,SoundMST/ManWhistle_E.wav,SIMILAR,NA,,,space,4.538,0,69,69,85,1
,,,,,,,,,,,,,,,,7,2021-10-14_09h34.11.900,Session1,2020.2.10,Win32,60,,,,,,,,,,,,,,,,,,,,,,,,,,,,,,,,,,,,,,,,,,,,,,,,,,,,,,,,,,,,,,,SoundMST/Airplane_B.wav,NEW,NA,,,space,4.066,0,70,70,36,1
,,,,,,,,,,,,,,,,7,2021-10-14_09h34.11.900,Session1,2020.2.10,Win32,60,,,,,,,,,,,,,,,,,,,,,,,,,,,,,,,,,,,,,,,,,,,,,,,,,,,,,,,,,,,,,,,SoundMST/Cow.wav,NEW,NA,,,space,2.854,0,71,71,44,1
,,,,,,,,,,,,,,,,7,2021-10-14_09h34.11.900,Session1,2020.2.10,Win32,60,,,,,,,,,,,,,,,,,,,,,,,,,,,,,,,,,,,,,,,,,,,,,,,,,,,,,,,,,,,,,,,SoundMST/Writing_C.wav,SIMILAR,NA,,,space,4.349,0,72,72,64,1
,,,,,,,,,,,,,,,,7,2021-10-14_09h34.11.900,Session1,2020.2.10,Win32,60,,,,,,,,,,,,,,,,,,,,,,,,,,,,,,,,,,,,,,,,,,,,,,,,,,,,,,,,,,,,,,,SoundMST/Phone_E.wav,SIMILAR,NA,,,space,3.767,0,73,73,70,1
,,,,,,,,,,,,,,,,7,2021-10-14_09h34.11.900,Session1,2020.2.10,Win32,60,,,,,,,,,,,,,,,,,,,,,,,,,,,,,,,,,,,,,,,,,,,,,,,,,,,,,,,,,,,,,,,SoundMST/Coin_D.wav,NEW,NA,,,space,4.2,0,74,74,61,1
,,,,,,,,,,,,,,,,7,2021-10-14_09h34.11.900,Session1,2020.2.10,Win32,60,,,,,,,,,,,,,,,,,,,,,,,,,,,,,,,,,,,,,,,,,,,,,,,,,,,,,,,,,,,,,,,SoundMST/Typing.wav,NEW,NA,,,space,4.617,0,75,75,47,1
,,,,,,,,,,,,,,,,7,2021-10-14_09h34.11.900,Session1,2020.2.10,Win32,60,,,,,,,,,,,,,,,,,,,,,,,,,,,,,,,,,,,,,,,,,,,,,,,,,,,,,,,,,,,,,,,SoundMST/Whistle_C.wav,SIMILAR,NA,,,space,3.4,0,76,76,82,1
,,,,,,,,,,,,,,,,7,2021-10-14_09h34.11.900,Session1,2020.2.10,Win32,60,,,,,,,,,,,,,,,,,,,,,,,,,,,,,,,,,,,,,,,,,,,,,,,,,,,,,,,,,,,,,,,SoundMST/Mosquito_B.wav,NEW,NA,,,space,7.665,0,77,77,17,1
,,,,,,,,,,,,,,,,7,2021-10-14_09h34.11.900,Session1,2020.2.10,Win32,60,,,,,,,,,,,,,,,,,,,,,,,,,,,,,,,,,,,,,,,,,,,,,,,,,,,,,,,,,,,,,,,SoundMST/PaperRip.wav,NEW,NA,,,space,5.84,0,78,78,56,1
,,,,,,,,,,,,,,,,7,2021-10-14_09h34.11.900,Session1,2020.2.10,Win32,60,,,,,,,,,,,,,,,,,,,,,,,,,,,,,,,,,,,,,,,,,,,,,,,,,,,,,,,,,,,,,,,SoundMST/Piano_C.wav,SIMILAR,NA,,,space,4.149,0,79,79,67,1
,,,,,,,,,,,,,,,,7,2021-10-14_09h34.11.900,Session1,2020.2.10,Win32,60,,,,,,,,,,,,,,,,,,,,,,,,,,,,,,,,,,,,,,,,,,,,,,,,,,,,,,,,,,,,,,,SoundMST/CarStart_E.wav,NEW,NA,,,space,3.966,0,80,80,2,1
,,,,,,,,,,,,,,,,7,2021-10-14_09h34.11.900,Session1,2020.2.10,Win32,60,,,,,,,,,,,,,,,,,,,,,,,,,,,,,,,,,,,,,,,,,,,,,,,,,,,,,,,,,,,,,,,SoundMST/Clap_A.wav,NEW,NA,,,space,4.201,0,81,81,48,1
,,,,,,,,,,,,,,,,7,2021-10-14_09h34.11.900,Session1,2020.2.10,Win32,60,,,,,,,,,,,,,,,,,,,,,,,,,,,,,,,,,,,,,,,,,,,,,,,,,,,,,,,,,,,,,,,SoundMST/Howl.wav,NEW,NA,,,space,4.121,0,82,82,33,1
,,,,,,,,,,,,,,,,7,2021-10-14_09h34.11.900,Session1,2020.2.10,Win32,60,,,,,,,,,,,,,,,,,,,,,,,,,,,,,,,,,,,,,,,,,,,,,,,,,,,,,,,,,,,,,,,SoundMST/Trumpet_C.wav,SIMILAR,NA,,,space,5.517,0,83,83,66,1
,,,,,,,,,,,,,,,,7,2021-10-14_09h34.11.900,Session1,2020.2.10,Win32,60,,,,,,,,,,,,,,,,,,,,,,,,,,,,,,,,,,,,,,,,,,,,,,,,,,,,,,,,,,,,,,,SoundMST/Chime_A.wav,SIMILAR,NA,,,space,3.868,0,84,84,72,1
,,,,,,,,,,,,,,,,7,2021-10-14_09h34.11.900,Session1,2020.2.10,Win32,60,,,,,,,,,,,,,,,,,,,,,,,,,,,,,,,,,,,,,,,,,,,,,,,,,,,,,,,,,,,,,,,SoundMST/CarStart_D.wav,SIMILAR,NA,,,space,5.281,0,85,85,65,1
,,,,,,,,,,,,,,,,7,2021-10-14_09h34.11.900,Session1,2020.2.10,Win32,60,,,,,,,,,,,,,,,,,,,,,,,,,,,,,,,,,,,,,,,,,,,,,,,,,,,,,,,,,,,,,,,SoundMST/Sneeze_B.wav,NEW,NA,,,space,3.549,0,86,86,43,1
,,,,,,,,,,,,,,,,7,2021-10-14_09h34.11.900,Session1,2020.2.10,Win32,60,,,,,,,,,,,,,,,,,,,,,,,,,,,,,,,,,,,,,,,,,,,,,,,,,,,,,,,,,,,,,,,SoundMST/Crow_A.wav,NEW,NA,,,space,4.318,0,87,87,58,1
>>>>>>> 3c6b67de205bc033bdd7ba55cb73065ed20c0e27
,,,,,,,,,,,,,,,,7,2021-10-14_09h34.11.900,Session1,2020.2.10,Win32,60,,,,,,,,,,,,,,,,,,,,,space,339.248,,,,,,,,,,,,,,,,,,,,,,,,,,,,,,,,,,,,,,,,,,,,,,,,,,,,
