ContinueResp.keys,ContinueResp.rt,WelcomeContinueKey2.keys,WelcomeContinueKey2.rt,PracticeRespKey2.keys,PracticeRespKey2.rt,Practice_resp.keys,Practice_resp.rt,PracticeTrials.thisRepN,PracticeTrials.thisTrialN,PracticeTrials.thisN,PracticeTrials.thisIndex,PracticeTrials.ran,SoundFile,Type,Correct,participant,date,expName,psychopyVersion,OS,frameRate,StartTast.keys,StartTast.rt,MST_resp.keys,MST_resp.corr,MST_resp.rt,trials.thisRepN,trials.thisTrialN,trials.thisN,trials.thisIndex,trials.ran,File,WordCorrect,Correct_type,WordType,Condition,WordTask.thisRepN,WordTask.thisTrialN,WordTask.thisN,WordTask.thisIndex,WordTask.ran,End1Cont.keys,End1Cont.rt,key_resp.keys,key_resp.rt,PracticeRespKey2II.keys,PracticeRespKey2II.rt,PracticeSoundKey.keys,PracticeSoundKey.rt,SoundPracticeLoop.thisRepN,SoundPracticeLoop.thisTrialN,SoundPracticeLoop.thisN,SoundPracticeLoop.thisIndex,SoundPracticeLoop.ran,SoundMST_File,SoundCorrect,Correct2,SoundType,Trial,MSTSoundStrtKey.keys,MSTSoundStrtKey.rt,MSTSoundKey.keys,MSTSoundKey.corr,MSTSoundKey.rt,MSTSoundLoop.thisRepN,MSTSoundLoop.thisTrialN,MSTSoundLoop.thisN,MSTSoundLoop.thisIndex,MSTSoundLoop.ran,SoundTask.thisRepN,SoundTask.thisTrialN,SoundTask.thisN,SoundTask.thisIndex,SoundTask.ran,SimContKey.keys,SimContKey.rt,SimilarityRatingKey.keys,SimilarityRatingKey.rt,SimilarityRating.thisRepN,SimilarityRating.thisTrialN,SimilarityRating.thisN,SimilarityRating.thisIndex,SimilarityRating.ran,Sound1,Sound2,PairType,Welcome4End.keys,Welcome4End.rt,LabelingKey.keys,LabelingKey.rt,SoundLabelLoop.thisRepN,SoundLabelLoop.thisTrialN,SoundLabelLoop.thisN,SoundLabelLoop.thisIndex,SoundLabelLoop.ran
space,80.671,space,2.759,space,7.468,space,1.231,0,0,0,0,1,Training/FO_YI_LAY.wav,NEW,2,8,2021-11-17_15h03.10.712,Session1,2020.2.10,Win32,60,,,,,,,,,,,,,,,,,,,,,,,,,,,,,,,,,,,,,,,,,,,,,,,,,,,,,,,,,,,,,,,,,,,,,,,,,,
,,,,space,9.066,space,6.68,0,1,1,1,1,Training/FO_YI_LAY.wav,OLD,1,8,2021-11-17_15h03.10.712,Session1,2020.2.10,Win32,60,,,,,,,,,,,,,,,,,,,,,,,,,,,,,,,,,,,,,,,,,,,,,,,,,,,,,,,,,,,,,,,,,,,,,,,,,,
,,,,space,6.83,space,0.918,0,2,2,2,1,Training/YO_BU_JAY.wav,NEW,2,8,2021-11-17_15h03.10.712,Session1,2020.2.10,Win32,60,,,,,,,,,,,,,,,,,,,,,,,,,,,,,,,,,,,,,,,,,,,,,,,,,,,,,,,,,,,,,,,,,,,,,,,,,,
,,,,space,6.51,space,3.013,0,3,3,3,1,Training/JAY_YO_BU.wav,SIMILAR,2,8,2021-11-17_15h03.10.712,Session1,2020.2.10,Win32,60,,,,,,,,,,,,,,,,,,,,,,,,,,,,,,,,,,,,,,,,,,,,,,,,,,,,,,,,,,,,,,,,,,,,,,,,,,
,,,,space,10.49,space,13.673,0,4,4,4,1,Training/FO_YI_LAY.wav,OLD,1,8,2021-11-17_15h03.10.712,Session1,2020.2.10,Win32,60,,,,,,,,,,,,,,,,,,,,,,,,,,,,,,,,,,,,,,,,,,,,,,,,,,,,,,,,,,,,,,,,,,,,,,,,,,
,,,,,,,,,,,,,,,,8,2021-11-17_15h03.10.712,Session1,2020.2.10,Win32,60,space,23.726,2,1,16.546,0,0,0,0,1,TestWords/HA_SI_JAI.wav,2,NEW,NEW,A,,,,,,,,,,,,,,,,,,,,,,,,,,,,,,,,,,,,,,,,,,,,,,,,,,,,,,,,,,,
,,,,,,,,,,,,,,,,8,2021-11-17_15h03.10.712,Session1,2020.2.10,Win32,60,,,2,1,2.576,0,1,1,1,1,TestWords/KO_SU_FAI.wav,2,NEW,NEW,A,,,,,,,,,,,,,,,,,,,,,,,,,,,,,,,,,,,,,,,,,,,,,,,,,,,,,,,,,,,
,,,,,,,,,,,,,,,,8,2021-11-17_15h03.10.712,Session1,2020.2.10,Win32,60,,,2,1,2.743,0,2,2,2,1,TestWords/TAI_GI_SA.wav,2,NEW,NEW,A,,,,,,,,,,,,,,,,,,,,,,,,,,,,,,,,,,,,,,,,,,,,,,,,,,,,,,,,,,,
,,,,,,,,,,,,,,,,8,2021-11-17_15h03.10.712,Session1,2020.2.10,Win32,60,,,2,1,4.589,0,3,3,3,1,TestWords/KAI_LAY_TA.wav,2,NEW,NEW,A,,,,,,,,,,,,,,,,,,,,,,,,,,,,,,,,,,,,,,,,,,,,,,,,,,,,,,,,,,,
,,,,,,,,,,,,,,,,8,2021-11-17_15h03.10.712,Session1,2020.2.10,Win32,60,,,2,1,2.709,0,4,4,4,1,TestWords/RAY_PA_TI.wav,2,NEW,NEW,A,,,,,,,,,,,,,,,,,,,,,,,,,,,,,,,,,,,,,,,,,,,,,,,,,,,,,,,,,,,
,,,,,,,,,,,,,,,,8,2021-11-17_15h03.10.712,Session1,2020.2.10,Win32,60,,,2,0,6.351,0,5,5,5,1,TestWords/KO_SU_FAI.wav,1,OLD,OLD,A,,,,,,,,,,,,,,,,,,,,,,,,,,,,,,,,,,,,,,,,,,,,,,,,,,,,,,,,,,,
,,,,,,,,,,,,,,,,8,2021-11-17_15h03.10.712,Session1,2020.2.10,Win32,60,,,2,1,6.184,0,6,6,6,1,TestWords/TAI_SA_GI.wav,2,NEW,SIMILAR,A,,,,,,,,,,,,,,,,,,,,,,,,,,,,,,,,,,,,,,,,,,,,,,,,,,,,,,,,,,,
,,,,,,,,,,,,,,,,8,2021-11-17_15h03.10.712,Session1,2020.2.10,Win32,60,,,2,0,7.584,0,7,7,7,1,TestWords/KAI_LAY_TA.wav,1,OLD,OLD,A,,,,,,,,,,,,,,,,,,,,,,,,,,,,,,,,,,,,,,,,,,,,,,,,,,,,,,,,,,,
,,,,,,,,,,,,,,,,8,2021-11-17_15h03.10.712,Session1,2020.2.10,Win32,60,,,2,1,5.834,0,8,8,8,1,TestWords/NA_WAI_VU.wav,2,NEW,NEW,A,,,,,,,,,,,,,,,,,,,,,,,,,,,,,,,,,,,,,,,,,,,,,,,,,,,,,,,,,,,
,,,,,,,,,,,,,,,,8,2021-11-17_15h03.10.712,Session1,2020.2.10,Win32,60,,,2,0,9.587,0,9,9,9,1,TestWords/KO_SU_FAI.wav,1,OLD,OLD,A,,,,,,,,,,,,,,,,,,,,,,,,,,,,,,,,,,,,,,,,,,,,,,,,,,,,,,,,,,,
,,,,,,,,,,,,,,,,8,2021-11-17_15h03.10.712,Session1,2020.2.10,Win32,60,,,1,1,3.557,0,10,10,10,1,TestWords/RAY_PA_TI.wav,1,OLD,OLD,A,,,,,,,,,,,,,,,,,,,,,,,,,,,,,,,,,,,,,,,,,,,,,,,,,,,,,,,,,,,
,,,,,,,,,,,,,,,,8,2021-11-17_15h03.10.712,Session1,2020.2.10,Win32,60,,,2,1,12.583,0,11,11,11,1,TestWords/GI_SA_TAI.wav,2,NEW,SIMILAR,A,,,,,,,,,,,,,,,,,,,,,,,,,,,,,,,,,,,,,,,,,,,,,,,,,,,,,,,,,,,
,,,,,,,,,,,,,,,,8,2021-11-17_15h03.10.712,Session1,2020.2.10,Win32,60,,,2,1,6.918,0,12,12,12,1,TestWords/WAI_VU_NA.wav,2,NEW,SIMILAR,A,,,,,,,,,,,,,,,,,,,,,,,,,,,,,,,,,,,,,,,,,,,,,,,,,,,,,,,,,,,
,,,,,,,,,,,,,,,,8,2021-11-17_15h03.10.712,Session1,2020.2.10,Win32,60,,,1,1,9.074,0,13,13,13,1,TestWords/KAI_LAY_TA.wav,1,OLD,OLD,A,,,,,,,,,,,,,,,,,,,,,,,,,,,,,,,,,,,,,,,,,,,,,,,,,,,,,,,,,,,
,,,,,,,,,,,,,,,,8,2021-11-17_15h03.10.712,Session1,2020.2.10,Win32,60,,,2,1,11.286,0,14,14,14,1,TestWords/SI_VAI_CHU.wav,2,NEW,NEW,A,,,,,,,,,,,,,,,,,,,,,,,,,,,,,,,,,,,,,,,,,,,,,,,,,,,,,,,,,,,
,,,,,,,,,,,,,,,,8,2021-11-17_15h03.10.712,Session1,2020.2.10,Win32,60,,,1,0,4.584,0,15,15,15,1,TestWords/GI_TAI_SA.wav,2,NEW,SIMILAR,A,,,,,,,,,,,,,,,,,,,,,,,,,,,,,,,,,,,,,,,,,,,,,,,,,,,,,,,,,,,
,,,,,,,,,,,,,,,,8,2021-11-17_15h03.10.712,Session1,2020.2.10,Win32,60,,,1,1,8.85,0,16,16,16,1,TestWords/KO_SU_FAI.wav,1,OLD,OLD,A,,,,,,,,,,,,,,,,,,,,,,,,,,,,,,,,,,,,,,,,,,,,,,,,,,,,,,,,,,,
,,,,,,,,,,,,,,,,8,2021-11-17_15h03.10.712,Session1,2020.2.10,Win32,60,,,2,1,7.299,0,17,17,17,1,TestWords/DA_CHU_VAI.wav,2,NEW,NEW,A,,,,,,,,,,,,,,,,,,,,,,,,,,,,,,,,,,,,,,,,,,,,,,,,,,,,,,,,,,,
,,,,,,,,,,,,,,,,8,2021-11-17_15h03.10.712,Session1,2020.2.10,Win32,60,,,1,1,1.801,0,18,18,18,1,TestWords/RAY_PA_TI.wav,1,OLD,OLD,A,,,,,,,,,,,,,,,,,,,,,,,,,,,,,,,,,,,,,,,,,,,,,,,,,,,,,,,,,,,
,,,,,,,,,,,,,,,,8,2021-11-17_15h03.10.712,Session1,2020.2.10,Win32,60,,,2,0,8.433,0,19,19,19,1,TestWords/KAI_LAY_TA.wav,1,OLD,OLD,A,,,,,,,,,,,,,,,,,,,,,,,,,,,,,,,,,,,,,,,,,,,,,,,,,,,,,,,,,,,
,,,,,,,,,,,,,,,,8,2021-11-17_15h03.10.712,Session1,2020.2.10,Win32,60,,,2,1,5.35,0,20,20,20,1,TestWords/WAI_NA_VU.wav,2,NEW,SIMILAR,A,,,,,,,,,,,,,,,,,,,,,,,,,,,,,,,,,,,,,,,,,,,,,,,,,,,,,,,,,,,
,,,,,,,,,,,,,,,,8,2021-11-17_15h03.10.712,Session1,2020.2.10,Win32,60,,,1,1,8.551,0,21,21,21,1,TestWords/KO_SU_FAI.wav,1,OLD,OLD,A,,,,,,,,,,,,,,,,,,,,,,,,,,,,,,,,,,,,,,,,,,,,,,,,,,,,,,,,,,,
,,,,,,,,,,,,,,,,8,2021-11-17_15h03.10.712,Session1,2020.2.10,Win32,60,,,2,1,3.738,0,22,22,22,1,TestWords/SA_TAI_GI.wav,2,NEW,SIMILAR,A,,,,,,,,,,,,,,,,,,,,,,,,,,,,,,,,,,,,,,,,,,,,,,,,,,,,,,,,,,,
,,,,,,,,,,,,,,,,8,2021-11-17_15h03.10.712,Session1,2020.2.10,Win32,60,,,1,1,1.587,0,23,23,23,1,TestWords/RAY_PA_TI.wav,1,OLD,OLD,A,,,,,,,,,,,,,,,,,,,,,,,,,,,,,,,,,,,,,,,,,,,,,,,,,,,,,,,,,,,
,,,,,,,,,,,,,,,,8,2021-11-17_15h03.10.712,Session1,2020.2.10,Win32,60,,,2,1,6.184,0,24,24,24,1,TestWords/VU_NA_WAI.wav,2,NEW,SIMILAR,A,,,,,,,,,,,,,,,,,,,,,,,,,,,,,,,,,,,,,,,,,,,,,,,,,,,,,,,,,,,
,,,,,,,,,,,,,,,,8,2021-11-17_15h03.10.712,Session1,2020.2.10,Win32,60,,,1,1,4.655,0,25,25,25,1,TestWords/KAI_LAY_TA.wav,1,OLD,OLD,A,,,,,,,,,,,,,,,,,,,,,,,,,,,,,,,,,,,,,,,,,,,,,,,,,,,,,,,,,,,
,,,,,,,,,,,,,,,,8,2021-11-17_15h03.10.712,Session1,2020.2.10,Win32,60,,,2,1,5.134,0,26,26,26,1,TestWords/WAI_RO_JU.wav,2,NEW,NEW,A,,,,,,,,,,,,,,,,,,,,,,,,,,,,,,,,,,,,,,,,,,,,,,,,,,,,,,,,,,,
,,,,,,,,,,,,,,,,8,2021-11-17_15h03.10.712,Session1,2020.2.10,Win32,60,,,1,1,5.133,0,27,27,27,1,TestWords/KO_SU_FAI.wav,1,OLD,OLD,A,,,,,,,,,,,,,,,,,,,,,,,,,,,,,,,,,,,,,,,,,,,,,,,,,,,,,,,,,,,
,,,,,,,,,,,,,,,,8,2021-11-17_15h03.10.712,Session1,2020.2.10,Win32,60,,,2,1,7.071,0,28,28,28,1,TestWords/SA_GI_TAI.wav,2,NEW,SIMILAR,A,,,,,,,,,,,,,,,,,,,,,,,,,,,,,,,,,,,,,,,,,,,,,,,,,,,,,,,,,,,
,,,,,,,,,,,,,,,,8,2021-11-17_15h03.10.712,Session1,2020.2.10,Win32,60,,,1,1,1.419,0,29,29,29,1,TestWords/RAY_PA_TI.wav,1,OLD,OLD,A,,,,,,,,,,,,,,,,,,,,,,,,,,,,,,,,,,,,,,,,,,,,,,,,,,,,,,,,,,,
,,,,,,,,,,,,,,,,8,2021-11-17_15h03.10.712,Session1,2020.2.10,Win32,60,,,2,1,5.301,0,30,30,30,1,TestWords/GA_MU_ZI.wav,2,NEW,NEW,A,,,,,,,,,,,,,,,,,,,,,,,,,,,,,,,,,,,,,,,,,,,,,,,,,,,,,,,,,,,
,,,,,,,,,,,,,,,,8,2021-11-17_15h03.10.712,Session1,2020.2.10,Win32,60,,,1,1,3.468,0,31,31,31,1,TestWords/KAI_LAY_TA.wav,1,OLD,OLD,A,,,,,,,,,,,,,,,,,,,,,,,,,,,,,,,,,,,,,,,,,,,,,,,,,,,,,,,,,,,
,,,,,,,,,,,,,,,,8,2021-11-17_15h03.10.712,Session1,2020.2.10,Win32,60,,,1,0,7.366,0,32,32,32,1,TestWords/VU_WAI_NA.wav,2,NEW,SIMILAR,A,,,,,,,,,,,,,,,,,,,,,,,,,,,,,,,,,,,,,,,,,,,,,,,,,,,,,,,,,,,
,,,,,,,,,,,,,,,,8,2021-11-17_15h03.10.712,Session1,2020.2.10,Win32,60,,,1,1,2.286,0,33,33,33,1,TestWords/RAY_PA_TI.wav,1,OLD,OLD,A,,,,,,,,,,,,,,,,,,,,,,,,,,,,,,,,,,,,,,,,,,,,,,,,,,,,,,,,,,,
,,,,,,,,,,,,,,,,8,2021-11-17_15h03.10.712,Session1,2020.2.10,Win32,60,,,2,1,7.103,0,34,34,34,1,TestWords/LI_KAY_BA.wav,2,NEW,NEW,A,,,,,,,,,,,,,,,,,,,,,,,,,,,,,,,,,,,,,,,,,,,,,,,,,,,,,,,,,,,
,,,,,,,,,,,,,,,,8,2021-11-17_15h03.10.712,Session1,2020.2.10,Win32,60,,,2,1,6.25,0,35,35,35,1,TestWords/HI_NAY_VA.wav,2,NEW,NEW,A,,,,,,,,,,,,,,,,,,,,,,,,,,,,,,,,,,,,,,,,,,,,,,,,,,,,,,,,,,,
,,,,,,,,,,,,,,,,8,2021-11-17_15h03.10.712,Session1,2020.2.10,Win32,60,,,1,1,7.432,0,36,36,36,1,TestWords/KO_SU_FAI.wav,1,OLD,OLD,A,,,,,,,,,,,,,,,,,,,,,,,,,,,,,,,,,,,,,,,,,,,,,,,,,,,,,,,,,,,
,,,,,,,,,,,,,,,,8,2021-11-17_15h03.10.712,Session1,2020.2.10,Win32,60,,,1,0,7.374,0,37,37,37,1,TestWords/NA_VU_WAI.wav,2,NEW,SIMILAR,A,,,,,,,,,,,,,,,,,,,,,,,,,,,,,,,,,,,,,,,,,,,,,,,,,,,,,,,,,,,
,,,,,,,,,,,,,,,,8,2021-11-17_15h03.10.712,Session1,2020.2.10,Win32,60,,,2,0,11.165,0,38,38,38,1,TestWords/GA_MU_ZI.wav,1,OLD,OLD,A,,,,,,,,,,,,,,,,,,,,,,,,,,,,,,,,,,,,,,,,,,,,,,,,,,,,,,,,,,,
,,,,,,,,,,,,,,,,8,2021-11-17_15h03.10.712,Session1,2020.2.10,Win32,60,,,1,1,4.224,0,39,39,39,1,TestWords/KAI_LAY_TA.wav,1,OLD,OLD,A,,,,,,,,,,,,,,,,,,,,,,,,,,,,,,,,,,,,,,,,,,,,,,,,,,,,,,,,,,,
,,,,,,,,,,,,,,,,8,2021-11-17_15h03.10.712,Session1,2020.2.10,Win32,60,,,2,1,7.25,0,40,40,40,1,TestWords/DAI_RU_CHI.wav,2,NEW,NEW,A,,,,,,,,,,,,,,,,,,,,,,,,,,,,,,,,,,,,,,,,,,,,,,,,,,,,,,,,,,,
,,,,,,,,,,,,,,,,8,2021-11-17_15h03.10.712,Session1,2020.2.10,Win32,60,,,2,1,8.017,0,41,41,41,1,TestWords/NU_CHAY_SO.wav,2,NEW,NEW,A,,,,,,,,,,,,,,,,,,,,,,,,,,,,,,,,,,,,,,,,,,,,,,,,,,,,,,,,,,,
,,,,,,,,,,,,,,,,8,2021-11-17_15h03.10.712,Session1,2020.2.10,Win32,60,,,1,1,2.085,0,42,42,42,1,TestWords/RAY_PA_TI.wav,1,OLD,OLD,A,,,,,,,,,,,,,,,,,,,,,,,,,,,,,,,,,,,,,,,,,,,,,,,,,,,,,,,,,,,
,,,,,,,,,,,,,,,,8,2021-11-17_15h03.10.712,Session1,2020.2.10,Win32,60,,,2,1,6.065,0,43,43,43,1,TestWords/BA_KAY_LI.wav,2,NEW,SIMILAR,A,,,,,,,,,,,,,,,,,,,,,,,,,,,,,,,,,,,,,,,,,,,,,,,,,,,,,,,,,,,
,,,,,,,,,,,,,,,,8,2021-11-17_15h03.10.712,Session1,2020.2.10,Win32,60,,,1,1,5.267,0,44,44,44,1,TestWords/KO_SU_FAI.wav,1,OLD,OLD,A,,,,,,,,,,,,,,,,,,,,,,,,,,,,,,,,,,,,,,,,,,,,,,,,,,,,,,,,,,,
,,,,,,,,,,,,,,,,8,2021-11-17_15h03.10.712,Session1,2020.2.10,Win32,60,,,1,1,8.524,0,45,45,45,1,TestWords/GA_MU_ZI.wav,1,OLD,OLD,A,,,,,,,,,,,,,,,,,,,,,,,,,,,,,,,,,,,,,,,,,,,,,,,,,,,,,,,,,,,
,,,,,,,,,,,,,,,,8,2021-11-17_15h03.10.712,Session1,2020.2.10,Win32,60,,,2,1,6.799,0,46,46,46,1,TestWords/CHU_LA_PAY.wav,2,NEW,NEW,A,,,,,,,,,,,,,,,,,,,,,,,,,,,,,,,,,,,,,,,,,,,,,,,,,,,,,,,,,,,
,,,,,,,,,,,,,,,,8,2021-11-17_15h03.10.712,Session1,2020.2.10,Win32,60,,,1,1,3.417,0,47,47,47,1,TestWords/KAI_LAY_TA.wav,1,OLD,OLD,A,,,,,,,,,,,,,,,,,,,,,,,,,,,,,,,,,,,,,,,,,,,,,,,,,,,,,,,,,,,
,,,,,,,,,,,,,,,,8,2021-11-17_15h03.10.712,Session1,2020.2.10,Win32,60,,,2,0,18.233,0,48,48,48,1,TestWords/DAI_RU_CHI.wav,1,OLD,OLD,A,,,,,,,,,,,,,,,,,,,,,,,,,,,,,,,,,,,,,,,,,,,,,,,,,,,,,,,,,,,
,,,,,,,,,,,,,,,,8,2021-11-17_15h03.10.712,Session1,2020.2.10,Win32,60,,,1,1,3.324,0,49,49,49,1,TestWords/KO_SU_FAI.wav,1,OLD,OLD,A,,,,,,,,,,,,,,,,,,,,,,,,,,,,,,,,,,,,,,,,,,,,,,,,,,,,,,,,,,,
,,,,,,,,,,,,,,,,8,2021-11-17_15h03.10.712,Session1,2020.2.10,Win32,60,,,1,0,8.948,0,50,50,50,1,TestWords/KAY_LI_BA.wav,2,NEW,SIMILAR,A,,,,,,,,,,,,,,,,,,,,,,,,,,,,,,,,,,,,,,,,,,,,,,,,,,,,,,,,,,,
,,,,,,,,,,,,,,,,8,2021-11-17_15h03.10.712,Session1,2020.2.10,Win32,60,,,1,1,1.719,0,51,51,51,1,TestWords/RAY_PA_TI.wav,1,OLD,OLD,A,,,,,,,,,,,,,,,,,,,,,,,,,,,,,,,,,,,,,,,,,,,,,,,,,,,,,,,,,,,
,,,,,,,,,,,,,,,,8,2021-11-17_15h03.10.712,Session1,2020.2.10,Win32,60,,,1,1,3.6,0,52,52,52,1,TestWords/KAI_LAY_TA.wav,1,OLD,OLD,A,,,,,,,,,,,,,,,,,,,,,,,,,,,,,,,,,,,,,,,,,,,,,,,,,,,,,,,,,,,
,,,,,,,,,,,,,,,,8,2021-11-17_15h03.10.712,Session1,2020.2.10,Win32,60,,,2,1,6.601,0,53,53,53,1,TestWords/HO_NAY_VA.wav,2,NEW,NEW,A,,,,,,,,,,,,,,,,,,,,,,,,,,,,,,,,,,,,,,,,,,,,,,,,,,,,,,,,,,,
,,,,,,,,,,,,,,,,8,2021-11-17_15h03.10.712,Session1,2020.2.10,Win32,60,,,1,1,9.532,0,54,54,54,1,TestWords/GA_MU_ZI.wav,1,OLD,OLD,A,,,,,,,,,,,,,,,,,,,,,,,,,,,,,,,,,,,,,,,,,,,,,,,,,,,,,,,,,,,
,,,,,,,,,,,,,,,,8,2021-11-17_15h03.10.712,Session1,2020.2.10,Win32,60,,,2,0,12.333,0,55,55,55,1,TestWords/DAI_RU_CHI.wav,1,OLD,OLD,A,,,,,,,,,,,,,,,,,,,,,,,,,,,,,,,,,,,,,,,,,,,,,,,,,,,,,,,,,,,
,,,,,,,,,,,,,,,,8,2021-11-17_15h03.10.712,Session1,2020.2.10,Win32,60,,,2,1,1.786,0,56,56,56,1,TestWords/MO_PU_DAY.wav,2,NEW,NEW,A,,,,,,,,,,,,,,,,,,,,,,,,,,,,,,,,,,,,,,,,,,,,,,,,,,,,,,,,,,,
,,,,,,,,,,,,,,,,8,2021-11-17_15h03.10.712,Session1,2020.2.10,Win32,60,,,1,1,3.084,0,57,57,57,1,TestWords/KO_SU_FAI.wav,1,OLD,OLD,A,,,,,,,,,,,,,,,,,,,,,,,,,,,,,,,,,,,,,,,,,,,,,,,,,,,,,,,,,,,
,,,,,,,,,,,,,,,,8,2021-11-17_15h03.10.712,Session1,2020.2.10,Win32,60,,,1,0,6.418,0,58,58,58,1,TestWords/KAY_BA_LI.wav,2,NEW,SIMILAR,A,,,,,,,,,,,,,,,,,,,,,,,,,,,,,,,,,,,,,,,,,,,,,,,,,,,,,,,,,,,
,,,,,,,,,,,,,,,,8,2021-11-17_15h03.10.712,Session1,2020.2.10,Win32,60,,,1,1,1.184,0,59,59,59,1,TestWords/RAY_PA_TI.wav,1,OLD,OLD,A,,,,,,,,,,,,,,,,,,,,,,,,,,,,,,,,,,,,,,,,,,,,,,,,,,,,,,,,,,,
,,,,,,,,,,,,,,,,8,2021-11-17_15h03.10.712,Session1,2020.2.10,Win32,60,,,1,1,7.485,0,60,60,60,1,TestWords/KAI_LAY_TA.wav,1,OLD,OLD,A,,,,,,,,,,,,,,,,,,,,,,,,,,,,,,,,,,,,,,,,,,,,,,,,,,,,,,,,,,,
,,,,,,,,,,,,,,,,8,2021-11-17_15h03.10.712,Session1,2020.2.10,Win32,60,,,1,1,3.986,0,61,61,61,1,TestWords/GA_MU_ZI.wav,1,OLD,OLD,A,,,,,,,,,,,,,,,,,,,,,,,,,,,,,,,,,,,,,,,,,,,,,,,,,,,,,,,,,,,
,,,,,,,,,,,,,,,,8,2021-11-17_15h03.10.712,Session1,2020.2.10,Win32,60,,,2,1,7.489,0,62,62,62,1,TestWords/DAY_PU_MO.wav,2,NEW,SIMILAR,A,,,,,,,,,,,,,,,,,,,,,,,,,,,,,,,,,,,,,,,,,,,,,,,,,,,,,,,,,,,
,,,,,,,,,,,,,,,,8,2021-11-17_15h03.10.712,Session1,2020.2.10,Win32,60,,,1,1,7.789,0,63,63,63,1,TestWords/DAI_RU_CHI.wav,1,OLD,OLD,A,,,,,,,,,,,,,,,,,,,,,,,,,,,,,,,,,,,,,,,,,,,,,,,,,,,,,,,,,,,
,,,,,,,,,,,,,,,,8,2021-11-17_15h03.10.712,Session1,2020.2.10,Win32,60,,,2,1,4.317,0,64,64,64,1,TestWords/LI_BA_KAY.wav,2,NEW,SIMILAR,A,,,,,,,,,,,,,,,,,,,,,,,,,,,,,,,,,,,,,,,,,,,,,,,,,,,,,,,,,,,
,,,,,,,,,,,,,,,,8,2021-11-17_15h03.10.712,Session1,2020.2.10,Win32,60,,,1,1,5.968,0,65,65,65,1,TestWords/KAI_LAY_TA.wav,1,OLD,OLD,A,,,,,,,,,,,,,,,,,,,,,,,,,,,,,,,,,,,,,,,,,,,,,,,,,,,,,,,,,,,
,,,,,,,,,,,,,,,,8,2021-11-17_15h03.10.712,Session1,2020.2.10,Win32,60,,,1,1,7.432,0,66,66,66,1,TestWords/KO_SU_FAI.wav,1,OLD,OLD,A,,,,,,,,,,,,,,,,,,,,,,,,,,,,,,,,,,,,,,,,,,,,,,,,,,,,,,,,,,,
,,,,,,,,,,,,,,,,8,2021-11-17_15h03.10.712,Session1,2020.2.10,Win32,60,,,2,1,14.931,0,67,67,67,1,TestWords/DAY_MO_PU.wav,2,NEW,SIMILAR,A,,,,,,,,,,,,,,,,,,,,,,,,,,,,,,,,,,,,,,,,,,,,,,,,,,,,,,,,,,,
,,,,,,,,,,,,,,,,8,2021-11-17_15h03.10.712,Session1,2020.2.10,Win32,60,,,1,1,1.319,0,68,68,68,1,TestWords/RAY_PA_TI.wav,1,OLD,OLD,A,,,,,,,,,,,,,,,,,,,,,,,,,,,,,,,,,,,,,,,,,,,,,,,,,,,,,,,,,,,
,,,,,,,,,,,,,,,,8,2021-11-17_15h03.10.712,Session1,2020.2.10,Win32,60,,,1,1,5.684,0,69,69,69,1,TestWords/GA_MU_ZI.wav,1,OLD,OLD,A,,,,,,,,,,,,,,,,,,,,,,,,,,,,,,,,,,,,,,,,,,,,,,,,,,,,,,,,,,,
,,,,,,,,,,,,,,,,8,2021-11-17_15h03.10.712,Session1,2020.2.10,Win32,60,,,2,1,12.464,0,70,70,70,1,TestWords/BA_LI_KAY.wav,2,NEW,SIMILAR,A,,,,,,,,,,,,,,,,,,,,,,,,,,,,,,,,,,,,,,,,,,,,,,,,,,,,,,,,,,,
,,,,,,,,,,,,,,,,8,2021-11-17_15h03.10.712,Session1,2020.2.10,Win32,60,,,1,1,3.49,0,71,71,71,1,TestWords/DAI_RU_CHI.wav,1,OLD,OLD,A,,,,,,,,,,,,,,,,,,,,,,,,,,,,,,,,,,,,,,,,,,,,,,,,,,,,,,,,,,,
,,,,,,,,,,,,,,,,8,2021-11-17_15h03.10.712,Session1,2020.2.10,Win32,60,,,2,1,6.549,0,72,72,72,1,TestWords/LU_HAI_BO.wav,2,NEW,NEW,A,,,,,,,,,,,,,,,,,,,,,,,,,,,,,,,,,,,,,,,,,,,,,,,,,,,,,,,,,,,
,,,,,,,,,,,,,,,,8,2021-11-17_15h03.10.712,Session1,2020.2.10,Win32,60,,,1,1,1.319,0,73,73,73,1,TestWords/RAY_PA_TI.wav,1,OLD,OLD,A,,,,,,,,,,,,,,,,,,,,,,,,,,,,,,,,,,,,,,,,,,,,,,,,,,,,,,,,,,,
,,,,,,,,,,,,,,,,8,2021-11-17_15h03.10.712,Session1,2020.2.10,Win32,60,,,1,1,3.101,0,74,74,74,1,TestWords/GA_MU_ZI.wav,1,OLD,OLD,A,,,,,,,,,,,,,,,,,,,,,,,,,,,,,,,,,,,,,,,,,,,,,,,,,,,,,,,,,,,
,,,,,,,,,,,,,,,,8,2021-11-17_15h03.10.712,Session1,2020.2.10,Win32,60,,,2,1,10.487,0,75,75,75,1,TestWords/MO_DAY_PU.wav,2,NEW,SIMILAR,A,,,,,,,,,,,,,,,,,,,,,,,,,,,,,,,,,,,,,,,,,,,,,,,,,,,,,,,,,,,
,,,,,,,,,,,,,,,,8,2021-11-17_15h03.10.712,Session1,2020.2.10,Win32,60,,,1,1,7.116,0,76,76,76,1,TestWords/DAI_RU_CHI.wav,1,OLD,OLD,A,,,,,,,,,,,,,,,,,,,,,,,,,,,,,,,,,,,,,,,,,,,,,,,,,,,,,,,,,,,
,,,,,,,,,,,,,,,,8,2021-11-17_15h03.10.712,Session1,2020.2.10,Win32,60,,,2,1,10.448,0,77,77,77,1,TestWords/ZO_FU_RAI.wav,2,NEW,NEW,A,,,,,,,,,,,,,,,,,,,,,,,,,,,,,,,,,,,,,,,,,,,,,,,,,,,,,,,,,,,
,,,,,,,,,,,,,,,,8,2021-11-17_15h03.10.712,Session1,2020.2.10,Win32,60,,,2,1,10.35,0,78,78,78,1,TestWords/NO_WA_BAY.wav,2,NEW,NEW,A,,,,,,,,,,,,,,,,,,,,,,,,,,,,,,,,,,,,,,,,,,,,,,,,,,,,,,,,,,,
,,,,,,,,,,,,,,,,8,2021-11-17_15h03.10.712,Session1,2020.2.10,Win32,60,,,1,1,4.024,0,79,79,79,1,TestWords/GA_MU_ZI.wav,1,OLD,OLD,A,,,,,,,,,,,,,,,,,,,,,,,,,,,,,,,,,,,,,,,,,,,,,,,,,,,,,,,,,,,
,,,,,,,,,,,,,,,,8,2021-11-17_15h03.10.712,Session1,2020.2.10,Win32,60,,,1,1,4.233,0,80,80,80,1,TestWords/DAI_RU_CHI.wav,1,OLD,OLD,A,,,,,,,,,,,,,,,,,,,,,,,,,,,,,,,,,,,,,,,,,,,,,,,,,,,,,,,,,,,
,,,,,,,,,,,,,,,,8,2021-11-17_15h03.10.712,Session1,2020.2.10,Win32,60,,,2,1,10.198,0,81,81,81,1,TestWords/PU_DAY_MO.wav,2,NEW,SIMILAR,A,,,,,,,,,,,,,,,,,,,,,,,,,,,,,,,,,,,,,,,,,,,,,,,,,,,,,,,,,,,
,,,,,,,,,,,,,,,,8,2021-11-17_15h03.10.712,Session1,2020.2.10,Win32,60,,,2,1,8.387,0,82,82,82,1,TestWords/RAI_ZO_FU.wav,2,NEW,SIMILAR,A,,,,,,,,,,,,,,,,,,,,,,,,,,,,,,,,,,,,,,,,,,,,,,,,,,,,,,,,,,,
,,,,,,,,,,,,,,,,8,2021-11-17_15h03.10.712,Session1,2020.2.10,Win32,60,,,1,1,4.518,0,83,83,83,1,TestWords/GA_MU_ZI.wav,1,OLD,OLD,A,,,,,,,,,,,,,,,,,,,,,,,,,,,,,,,,,,,,,,,,,,,,,,,,,,,,,,,,,,,
,,,,,,,,,,,,,,,,8,2021-11-17_15h03.10.712,Session1,2020.2.10,Win32,60,,,2,1,15.428,0,84,84,84,1,TestWords/PAI_LU_WA.wav,2,NEW,NEW,A,,,,,,,,,,,,,,,,,,,,,,,,,,,,,,,,,,,,,,,,,,,,,,,,,,,,,,,,,,,
,,,,,,,,,,,,,,,,8,2021-11-17_15h03.10.712,Session1,2020.2.10,Win32,60,,,2,1,30.722,0,85,85,85,1,TestWords/PU_MO_DAY.wav,2,NEW,SIMILAR,A,,,,,,,,,,,,,,,,,,,,,,,,,,,,,,,,,,,,,,,,,,,,,,,,,,,,,,,,,,,
,,,,,,,,,,,,,,,,8,2021-11-17_15h03.10.712,Session1,2020.2.10,Win32,60,,,1,1,6.868,0,86,86,86,1,TestWords/DAI_RU_CHI.wav,1,OLD,OLD,A,,,,,,,,,,,,,,,,,,,,,,,,,,,,,,,,,,,,,,,,,,,,,,,,,,,,,,,,,,,
,,,,,,,,,,,,,,,,8,2021-11-17_15h03.10.712,Session1,2020.2.10,Win32,60,,,1,0,6.701,0,87,87,87,1,TestWords/ZO_RAI_FU.wav,2,NEW,SIMILAR,A,,,,,,,,,,,,,,,,,,,,,,,,,,,,,,,,,,,,,,,,,,,,,,,,,,,,,,,,,,,
,,,,,,,,,,,,,,,,8,2021-11-17_15h03.10.712,Session1,2020.2.10,Win32,60,,,2,1,5.785,0,88,88,88,1,TestWords/FI_GU_CHA.wav,2,NEW,NEW,A,,,,,,,,,,,,,,,,,,,,,,,,,,,,,,,,,,,,,,,,,,,,,,,,,,,,,,,,,,,
,,,,,,,,,,,,,,,,8,2021-11-17_15h03.10.712,Session1,2020.2.10,Win32,60,,,1,1,6.552,0,89,89,89,1,TestWords/GA_MU_ZI.wav,1,OLD,OLD,A,,,,,,,,,,,,,,,,,,,,,,,,,,,,,,,,,,,,,,,,,,,,,,,,,,,,,,,,,,,
,,,,,,,,,,,,,,,,8,2021-11-17_15h03.10.712,Session1,2020.2.10,Win32,60,,,1,1,3.801,0,90,90,90,1,TestWords/DAI_RU_CHI.wav,1,OLD,OLD,A,,,,,,,,,,,,,,,,,,,,,,,,,,,,,,,,,,,,,,,,,,,,,,,,,,,,,,,,,,,
,,,,,,,,,,,,,,,,8,2021-11-17_15h03.10.712,Session1,2020.2.10,Win32,60,,,2,1,13.23,0,91,91,91,1,TestWords/FU_RAI_ZO.wav,2,NEW,SIMILAR,A,,,,,,,,,,,,,,,,,,,,,,,,,,,,,,,,,,,,,,,,,,,,,,,,,,,,,,,,,,,
,,,,,,,,,,,,,,,,8,2021-11-17_15h03.10.712,Session1,2020.2.10,Win32,60,,,2,1,9.352,0,92,92,92,1,TestWords/GU_CHAI_PI.wav,2,NEW,NEW,A,,,,,,,,,,,,,,,,,,,,,,,,,,,,,,,,,,,,,,,,,,,,,,,,,,,,,,,,,,,
,,,,,,,,,,,,,,,,8,2021-11-17_15h03.10.712,Session1,2020.2.10,Win32,60,,,1,1,3.506,0,93,93,93,1,TestWords/GA_MU_ZI.wav,1,OLD,OLD,A,,,,,,,,,,,,,,,,,,,,,,,,,,,,,,,,,,,,,,,,,,,,,,,,,,,,,,,,,,,
,,,,,,,,,,,,,,,,8,2021-11-17_15h03.10.712,Session1,2020.2.10,Win32,60,,,1,1,3.551,0,94,94,94,1,TestWords/DAI_RU_CHI.wav,1,OLD,OLD,A,,,,,,,,,,,,,,,,,,,,,,,,,,,,,,,,,,,,,,,,,,,,,,,,,,,,,,,,,,,
,,,,,,,,,,,,,,,,8,2021-11-17_15h03.10.712,Session1,2020.2.10,Win32,60,,,2,1,16.267,0,95,95,95,1,TestWords/FU_ZO_RAI.wav,2,NEW,SIMILAR,A,,,,,,,,,,,,,,,,,,,,,,,,,,,,,,,,,,,,,,,,,,,,,,,,,,,,,,,,,,,
,,,,,,,,,,,,,,,,8,2021-11-17_15h03.10.712,Session1,2020.2.10,Win32,60,,,2,1,9.897,0,96,96,96,1,TestWords/VAI_HO_LA.wav,2,NEW,NEW,A,,,,,,,,,,,,,,,,,,,,,,,,,,,,,,,,,,,,,,,,,,,,,,,,,,,,,,,,,,,
,,,,,,,,,,,,,,,,8,2021-11-17_15h03.10.712,Session1,2020.2.10,Win32,60,,,1,1,2.871,0,97,97,97,1,TestWords/DAI_RU_CHI.wav,1,OLD,OLD,A,,,,,,,,,,,,,,,,,,,,,,,,,,,,,,,,,,,,,,,,,,,,,,,,,,,,,,,,,,,
,,,,,,,,,,,,,,,,8,2021-11-17_15h03.10.712,Session1,2020.2.10,Win32,60,,,2,1,9.016,0,98,98,98,1,TestWords/LA_ZAY_CHAI.wav,2,NEW,NEW,A,,,,,,,,,,,,,,,,,,,,,,,,,,,,,,,,,,,,,,,,,,,,,,,,,,,,,,,,,,,
,,,,,,,,,,,,,,,,8,2021-11-17_15h03.10.712,Session1,2020.2.10,Win32,60,,,2,1,11.016,0,99,99,99,1,TestWords/RAI_FU_ZO.wav,2,NEW,SIMILAR,A,,,,,,,,,,,,,,,,,,,,,,,,,,,,,,,,,,,,,,,,,,,,,,,,,,,,,,,,,,,
,,,,,,,,,,,,,,,,8,2021-11-17_15h03.10.712,Session1,2020.2.10,Win32,60,,,,,,,,,,,,,,,,0,0,0,0,1,,,,,,,,,,,,,,,,,,,,,,,,,,,,,,,,,,,,,,,,,,,,,,,,,,,,,,
,,space,3.668,,,,,,,,,,,,,8,2021-11-17_15h03.10.712,Session1,2020.2.10,Win32,60,,,,,,,,,,,,,,,,,,,,,space,38.304,space,43.425,space,4.636,space,1.225,0,0,0,0,1,Practice/Seagull_A.wav,2,3,NEW,Practice,,,,,,,,,,,,,,,,,,,,,,,,,,,,,,,,,,,,
,,,,,,,,,,,,,,,,8,2021-11-17_15h03.10.712,Session1,2020.2.10,Win32,60,,,,,,,,,,,,,,,,,,,,,,,,,space,6.065,space,1.036,0,1,1,1,1,Practice/Skid_B.wav,2,3,NEW,Practice,,,,,,,,,,,,,,,,,,,,,,,,,,,,,,,,,,,,
,,,,,,,,,,,,,,,,8,2021-11-17_15h03.10.712,Session1,2020.2.10,Win32,60,,,,,,,,,,,,,,,,,,,,,,,,,space,5.059,space,4.21,0,2,2,2,1,Practice/Seagull_A.wav,1,1,OLD,Practice,,,,,,,,,,,,,,,,,,,,,,,,,,,,,,,,,,,,
,,,,,,,,,,,,,,,,8,2021-11-17_15h03.10.712,Session1,2020.2.10,Win32,60,,,,,,,,,,,,,,,,,,,,,,,,,space,8.464,space,1.466,0,3,3,3,1,Practice/Gargle_A.wav,2,3,NEW,Practice,,,,,,,,,,,,,,,,,,,,,,,,,,,,,,,,,,,,
,,,,,,,,,,,,,,,,8,2021-11-17_15h03.10.712,Session1,2020.2.10,Win32,60,,,,,,,,,,,,,,,,,,,,,,,,,space,36.284,space,2.008,0,4,4,4,1,Practice/Gargle_B.wav,2,2,SIMILAR,Practice,,,,,,,,,,,,,,,,,,,,,,,,,,,,,,,,,,,,
,,,,,,,,,,,,,,,,8,2021-11-17_15h03.10.712,Session1,2020.2.10,Win32,60,,,,,,,,,,,,,,,,,,,,,,,,,,,,,,,,,,SoundMST/Buzz.wav,2,3,NEW,A,space,3.171,2,1,19.373,0,0,0,0,1,,,,,,,,,,,,,,,,,,,,,,,,,,
,,,,,,,,,,,,,,,,8,2021-11-17_15h03.10.712,Session1,2020.2.10,Win32,60,,,,,,,,,,,,,,,,,,,,,,,,,,,,,,,,,,SoundMST/Writing_A.wav,2,3,NEW,A,,,2,1,3.735,0,1,1,1,1,,,,,,,,,,,,,,,,,,,,,,,,,,
,,,,,,,,,,,,,,,,8,2021-11-17_15h03.10.712,Session1,2020.2.10,Win32,60,,,,,,,,,,,,,,,,,,,,,,,,,,,,,,,,,,SoundMST/CarStart_E.wav,2,3,NEW,A,,,2,1,2.585,0,2,2,2,1,,,,,,,,,,,,,,,,,,,,,,,,,,
,,,,,,,,,,,,,,,,8,2021-11-17_15h03.10.712,Session1,2020.2.10,Win32,60,,,,,,,,,,,,,,,,,,,,,,,,,,,,,,,,,,SoundMST/Elephant_C.wav,2,3,NEW,A,,,2,1,4.149,0,3,3,3,1,,,,,,,,,,,,,,,,,,,,,,,,,,
,,,,,,,,,,,,,,,,8,2021-11-17_15h03.10.712,Session1,2020.2.10,Win32,60,,,,,,,,,,,,,,,,,,,,,,,,,,,,,,,,,,SoundMST/Puff_A.wav,2,3,NEW,A,,,2,1,3.823,0,4,4,4,1,,,,,,,,,,,,,,,,,,,,,,,,,,
,,,,,,,,,,,,,,,,8,2021-11-17_15h03.10.712,Session1,2020.2.10,Win32,60,,,,,,,,,,,,,,,,,,,,,,,,,,,,,,,,,,SoundMST/Trumpet_B.wav,2,3,NEW,A,,,2,1,3.368,0,5,5,5,1,,,,,,,,,,,,,,,,,,,,,,,,,,
,,,,,,,,,,,,,,,,8,2021-11-17_15h03.10.712,Session1,2020.2.10,Win32,60,,,,,,,,,,,,,,,,,,,,,,,,,,,,,,,,,,SoundMST/Heartbeat.wav,2,3,NEW,A,,,2,1,3.484,0,6,6,6,1,,,,,,,,,,,,,,,,,,,,,,,,,,
,,,,,,,,,,,,,,,,8,2021-11-17_15h03.10.712,Session1,2020.2.10,Win32,60,,,,,,,,,,,,,,,,,,,,,,,,,,,,,,,,,,SoundMST/Piano_D.wav,2,3,NEW,A,,,2,1,3.567,0,7,7,7,1,,,,,,,,,,,,,,,,,,,,,,,,,,
,,,,,,,,,,,,,,,,8,2021-11-17_15h03.10.712,Session1,2020.2.10,Win32,60,,,,,,,,,,,,,,,,,,,,,,,,,,,,,,,,,,SoundMST/Cello.wav,2,3,NEW,A,,,2,1,4.308,0,8,8,8,1,,,,,,,,,,,,,,,,,,,,,,,,,,
,,,,,,,,,,,,,,,,8,2021-11-17_15h03.10.712,Session1,2020.2.10,Win32,60,,,,,,,,,,,,,,,,,,,,,,,,,,,,,,,,,,SoundMST/Writing_C.wav,2,2,SIMILAR,A,,,1,0,6.522,0,9,9,9,1,,,,,,,,,,,,,,,,,,,,,,,,,,
,,,,,,,,,,,,,,,,8,2021-11-17_15h03.10.712,Session1,2020.2.10,Win32,60,,,,,,,,,,,,,,,,,,,,,,,,,,,,,,,,,,SoundMST/Buzz.wav,1,1,OLD,A,,,1,1,4.833,0,10,10,10,1,,,,,,,,,,,,,,,,,,,,,,,,,,
,,,,,,,,,,,,,,,,8,2021-11-17_15h03.10.712,Session1,2020.2.10,Win32,60,,,,,,,,,,,,,,,,,,,,,,,,,,,,,,,,,,SoundMST/Steam.wav,2,3,NEW,A,,,2,1,5.075,0,11,11,11,1,,,,,,,,,,,,,,,,,,,,,,,,,,
,,,,,,,,,,,,,,,,8,2021-11-17_15h03.10.712,Session1,2020.2.10,Win32,60,,,,,,,,,,,,,,,,,,,,,,,,,,,,,,,,,,SoundMST/Cuckoo_A.wav,2,3,NEW,A,,,2,1,3.341,0,12,12,12,1,,,,,,,,,,,,,,,,,,,,,,,,,,
,,,,,,,,,,,,,,,,8,2021-11-17_15h03.10.712,Session1,2020.2.10,Win32,60,,,,,,,,,,,,,,,,,,,,,,,,,,,,,,,,,,SoundMST/Chicken_A.wav,2,3,NEW,A,,,2,1,5.868,0,13,13,13,1,,,,,,,,,,,,,,,,,,,,,,,,,,
,,,,,,,,,,,,,,,,8,2021-11-17_15h03.10.712,Session1,2020.2.10,Win32,60,,,,,,,,,,,,,,,,,,,,,,,,,,,,,,,,,,SoundMST/Goat_C.wav,2,3,NEW,A,,,2,1,4.983,0,14,14,14,1,,,,,,,,,,,,,,,,,,,,,,,,,,
,,,,,,,,,,,,,,,,8,2021-11-17_15h03.10.712,Session1,2020.2.10,Win32,60,,,,,,,,,,,,,,,,,,,,,,,,,,,,,,,,,,SoundMST/CarStart_D.wav,2,2,SIMILAR,A,,,1,0,16.619,0,15,15,15,1,,,,,,,,,,,,,,,,,,,,,,,,,,
,,,,,,,,,,,,,,,,8,2021-11-17_15h03.10.712,Session1,2020.2.10,Win32,60,,,,,,,,,,,,,,,,,,,,,,,,,,,,,,,,,,SoundMST/Duck_B.wav,2,3,NEW,A,,,2,1,9.748,0,16,16,16,1,,,,,,,,,,,,,,,,,,,,,,,,,,
,,,,,,,,,,,,,,,,8,2021-11-17_15h03.10.712,Session1,2020.2.10,Win32,60,,,,,,,,,,,,,,,,,,,,,,,,,,,,,,,,,,SoundMST/Trumpet_C.wav,2,2,SIMILAR,A,,,2,1,12.164,0,17,17,17,1,,,,,,,,,,,,,,,,,,,,,,,,,,
,,,,,,,,,,,,,,,,8,2021-11-17_15h03.10.712,Session1,2020.2.10,Win32,60,,,,,,,,,,,,,,,,,,,,,,,,,,,,,,,,,,SoundMST/Cello.wav,1,1,OLD,A,,,1,1,10.664,0,18,18,18,1,,,,,,,,,,,,,,,,,,,,,,,,,,
,,,,,,,,,,,,,,,,8,2021-11-17_15h03.10.712,Session1,2020.2.10,Win32,60,,,,,,,,,,,,,,,,,,,,,,,,,,,,,,,,,,SoundMST/Camera.wav,2,3,NEW,A,,,2,1,8.549,0,19,19,19,1,,,,,,,,,,,,,,,,,,,,,,,,,,
,,,,,,,,,,,,,,,,8,2021-11-17_15h03.10.712,Session1,2020.2.10,Win32,60,,,,,,,,,,,,,,,,,,,,,,,,,,,,,,,,,,SoundMST/Puff_A.wav,1,1,OLD,A,,,1,1,13.414,0,20,20,20,1,,,,,,,,,,,,,,,,,,,,,,,,,,
,,,,,,,,,,,,,,,,8,2021-11-17_15h03.10.712,Session1,2020.2.10,Win32,60,,,,,,,,,,,,,,,,,,,,,,,,,,,,,,,,,,SoundMST/Heartbeat.wav,1,1,OLD,A,,,1,1,9.68,0,21,21,21,1,,,,,,,,,,,,,,,,,,,,,,,,,,
,,,,,,,,,,,,,,,,8,2021-11-17_15h03.10.712,Session1,2020.2.10,Win32,60,,,,,,,,,,,,,,,,,,,,,,,,,,,,,,,,,,SoundMST/Phone_F.wav,2,3,NEW,A,,,2,1,6.352,0,22,22,22,1,,,,,,,,,,,,,,,,,,,,,,,,,,
,,,,,,,,,,,,,,,,8,2021-11-17_15h03.10.712,Session1,2020.2.10,Win32,60,,,,,,,,,,,,,,,,,,,,,,,,,,,,,,,,,,SoundMST/Piano_C.wav,2,2,SIMILAR,A,,,2,1,13.163,0,23,23,23,1,,,,,,,,,,,,,,,,,,,,,,,,,,
,,,,,,,,,,,,,,,,8,2021-11-17_15h03.10.712,Session1,2020.2.10,Win32,60,,,,,,,,,,,,,,,,,,,,,,,,,,,,,,,,,,SoundMST/Snore_C.wav,2,3,NEW,A,,,2,1,7.685,0,24,24,24,1,,,,,,,,,,,,,,,,,,,,,,,,,,
,,,,,,,,,,,,,,,,8,2021-11-17_15h03.10.712,Session1,2020.2.10,Win32,60,,,,,,,,,,,,,,,,,,,,,,,,,,,,,,,,,,SoundMST/Chicken_A.wav,1,1,OLD,A,,,1,1,9.531,0,25,25,25,1,,,,,,,,,,,,,,,,,,,,,,,,,,
,,,,,,,,,,,,,,,,8,2021-11-17_15h03.10.712,Session1,2020.2.10,Win32,60,,,,,,,,,,,,,,,,,,,,,,,,,,,,,,,,,,SoundMST/Mosquito_B.wav,2,3,NEW,A,,,2,1,4.271,0,26,26,26,1,,,,,,,,,,,,,,,,,,,,,,,,,,
,,,,,,,,,,,,,,,,8,2021-11-17_15h03.10.712,Session1,2020.2.10,Win32,60,,,,,,,,,,,,,,,,,,,,,,,,,,,,,,,,,,SoundMST/Cough_I.wav,2,3,NEW,A,,,2,1,5.789,0,27,27,27,1,,,,,,,,,,,,,,,,,,,,,,,,,,
,,,,,,,,,,,,,,,,8,2021-11-17_15h03.10.712,Session1,2020.2.10,Win32,60,,,,,,,,,,,,,,,,,,,,,,,,,,,,,,,,,,SoundMST/Elephant_A.wav,2,2,SIMILAR,A,,,1,0,4.891,0,28,28,28,1,,,,,,,,,,,,,,,,,,,,,,,,,,
,,,,,,,,,,,,,,,,8,2021-11-17_15h03.10.712,Session1,2020.2.10,Win32,60,,,,,,,,,,,,,,,,,,,,,,,,,,,,,,,,,,SoundMST/Cuckoo_A.wav,1,1,OLD,A,,,1,1,10.084,0,29,29,29,1,,,,,,,,,,,,,,,,,,,,,,,,,,
,,,,,,,,,,,,,,,,8,2021-11-17_15h03.10.712,Session1,2020.2.10,Win32,60,,,,,,,,,,,,,,,,,,,,,,,,,,,,,,,,,,SoundMST/Baby_C.wav,2,3,NEW,A,,,2,1,6.115,0,30,30,30,1,,,,,,,,,,,,,,,,,,,,,,,,,,
,,,,,,,,,,,,,,,,8,2021-11-17_15h03.10.712,Session1,2020.2.10,Win32,60,,,,,,,,,,,,,,,,,,,,,,,,,,,,,,,,,,SoundMST/Duck_A.wav,2,2,SIMILAR,A,,,2,1,11.831,0,31,31,31,1,,,,,,,,,,,,,,,,,,,,,,,,,,
,,,,,,,,,,,,,,,,8,2021-11-17_15h03.10.712,Session1,2020.2.10,Win32,60,,,,,,,,,,,,,,,,,,,,,,,,,,,,,,,,,,SoundMST/Chime_D.wav,2,3,NEW,A,,,2,1,6.199,0,32,32,32,1,,,,,,,,,,,,,,,,,,,,,,,,,,
,,,,,,,,,,,,,,,,8,2021-11-17_15h03.10.712,Session1,2020.2.10,Win32,60,,,,,,,,,,,,,,,,,,,,,,,,,,,,,,,,,,SoundMST/Faucet_A.wav,2,3,NEW,A,,,2,1,7.385,0,33,33,33,1,,,,,,,,,,,,,,,,,,,,,,,,,,
,,,,,,,,,,,,,,,,8,2021-11-17_15h03.10.712,Session1,2020.2.10,Win32,60,,,,,,,,,,,,,,,,,,,,,,,,,,,,,,,,,,SoundMST/Camera.wav,1,1,OLD,A,,,1,1,7.664,0,34,34,34,1,,,,,,,,,,,,,,,,,,,,,,,,,,
,,,,,,,,,,,,,,,,8,2021-11-17_15h03.10.712,Session1,2020.2.10,Win32,60,,,,,,,,,,,,,,,,,,,,,,,,,,,,,,,,,,SoundMST/Bird_C.wav,2,3,NEW,A,,,2,1,6.503,0,35,35,35,1,,,,,,,,,,,,,,,,,,,,,,,,,,
,,,,,,,,,,,,,,,,8,2021-11-17_15h03.10.712,Session1,2020.2.10,Win32,60,,,,,,,,,,,,,,,,,,,,,,,,,,,,,,,,,,SoundMST/Steam.wav,1,1,OLD,A,,,1,1,6.866,0,36,36,36,1,,,,,,,,,,,,,,,,,,,,,,,,,,
,,,,,,,,,,,,,,,,8,2021-11-17_15h03.10.712,Session1,2020.2.10,Win32,60,,,,,,,,,,,,,,,,,,,,,,,,,,,,,,,,,,SoundMST/Phone_E.wav,2,2,SIMILAR,A,,,1,0,6.816,0,37,37,37,1,,,,,,,,,,,,,,,,,,,,,,,,,,
,,,,,,,,,,,,,,,,8,2021-11-17_15h03.10.712,Session1,2020.2.10,Win32,60,,,,,,,,,,,,,,,,,,,,,,,,,,,,,,,,,,SoundMST/Snore_E.wav,2,2,SIMILAR,A,,,1,0,11.413,0,38,38,38,1,,,,,,,,,,,,,,,,,,,,,,,,,,
,,,,,,,,,,,,,,,,8,2021-11-17_15h03.10.712,Session1,2020.2.10,Win32,60,,,,,,,,,,,,,,,,,,,,,,,,,,,,,,,,,,SoundMST/Goat_C.wav,1,1,OLD,A,,,1,1,7.218,0,39,39,39,1,,,,,,,,,,,,,,,,,,,,,,,,,,
,,,,,,,,,,,,,,,,8,2021-11-17_15h03.10.712,Session1,2020.2.10,Win32,60,,,,,,,,,,,,,,,,,,,,,,,,,,,,,,,,,,SoundMST/Chime_A.wav,2,2,SIMILAR,A,,,1,0,11.281,0,40,40,40,1,,,,,,,,,,,,,,,,,,,,,,,,,,
,,,,,,,,,,,,,,,,8,2021-11-17_15h03.10.712,Session1,2020.2.10,Win32,60,,,,,,,,,,,,,,,,,,,,,,,,,,,,,,,,,,SoundMST/Faucet_C.wav,2,2,SIMILAR,A,,,1,0,7.915,0,41,41,41,1,,,,,,,,,,,,,,,,,,,,,,,,,,
,,,,,,,,,,,,,,,,8,2021-11-17_15h03.10.712,Session1,2020.2.10,Win32,60,,,,,,,,,,,,,,,,,,,,,,,,,,,,,,,,,,SoundMST/Bullfrog.wav,2,3,NEW,A,,,2,1,7.173,0,42,42,42,1,,,,,,,,,,,,,,,,,,,,,,,,,,
,,,,,,,,,,,,,,,,8,2021-11-17_15h03.10.712,Session1,2020.2.10,Win32,60,,,,,,,,,,,,,,,,,,,,,,,,,,,,,,,,,,SoundMST/Mosquito_B.wav,1,1,OLD,A,,,1,1,10.538,0,43,43,43,1,,,,,,,,,,,,,,,,,,,,,,,,,,
,,,,,,,,,,,,,,,,8,2021-11-17_15h03.10.712,Session1,2020.2.10,Win32,60,,,,,,,,,,,,,,,,,,,,,,,,,,,,,,,,,,SoundMST/Guitar_B.wav,2,3,NEW,A,,,2,1,8.202,0,44,44,44,1,,,,,,,,,,,,,,,,,,,,,,,,,,
,,,,,,,,,,,,,,,,8,2021-11-17_15h03.10.712,Session1,2020.2.10,Win32,60,,,,,,,,,,,,,,,,,,,,,,,,,,,,,,,,,,SoundMST/Baby_B.wav,2,2,SIMILAR,A,,,2,1,8.133,0,45,45,45,1,,,,,,,,,,,,,,,,,,,,,,,,,,
,,,,,,,,,,,,,,,,8,2021-11-17_15h03.10.712,Session1,2020.2.10,Win32,60,,,,,,,,,,,,,,,,,,,,,,,,,,,,,,,,,,SoundMST/Sleighbells_B.wav,2,3,NEW,A,,,2,1,8.485,0,46,46,46,1,,,,,,,,,,,,,,,,,,,,,,,,,,
,,,,,,,,,,,,,,,,8,2021-11-17_15h03.10.712,Session1,2020.2.10,Win32,60,,,,,,,,,,,,,,,,,,,,,,,,,,,,,,,,,,SoundMST/Cat_A.wav,2,3,NEW,A,,,2,1,7.416,0,47,47,47,1,,,,,,,,,,,,,,,,,,,,,,,,,,
,,,,,,,,,,,,,,,,8,2021-11-17_15h03.10.712,Session1,2020.2.10,Win32,60,,,,,,,,,,,,,,,,,,,,,,,,,,,,,,,,,,SoundMST/Airhorn.wav,2,3,NEW,A,,,2,1,7.083,0,48,48,48,1,,,,,,,,,,,,,,,,,,,,,,,,,,
,,,,,,,,,,,,,,,,8,2021-11-17_15h03.10.712,Session1,2020.2.10,Win32,60,,,,,,,,,,,,,,,,,,,,,,,,,,,,,,,,,,SoundMST/Bird_A.wav,2,2,SIMILAR,A,,,2,1,18.462,0,49,49,49,1,,,,,,,,,,,,,,,,,,,,,,,,,,
,,,,,,,,,,,,,,,,8,2021-11-17_15h03.10.712,Session1,2020.2.10,Win32,60,,,,,,,,,,,,,,,,,,,,,,,,,,,,,,,,,,SoundMST/Laugh_A.wav,2,3,NEW,A,,,2,1,5.803,0,50,50,50,1,,,,,,,,,,,,,,,,,,,,,,,,,,
,,,,,,,,,,,,,,,,8,2021-11-17_15h03.10.712,Session1,2020.2.10,Win32,60,,,,,,,,,,,,,,,,,,,,,,,,,,,,,,,,,,SoundMST/Dog_H.wav,2,3,NEW,A,,,2,1,6.633,0,51,51,51,1,,,,,,,,,,,,,,,,,,,,,,,,,,
,,,,,,,,,,,,,,,,8,2021-11-17_15h03.10.712,Session1,2020.2.10,Win32,60,,,,,,,,,,,,,,,,,,,,,,,,,,,,,,,,,,SoundMST/Cough_J.wav,2,2,SIMILAR,A,,,1,0,7.569,0,52,52,52,1,,,,,,,,,,,,,,,,,,,,,,,,,,
,,,,,,,,,,,,,,,,8,2021-11-17_15h03.10.712,Session1,2020.2.10,Win32,60,,,,,,,,,,,,,,,,,,,,,,,,,,,,,,,,,,SoundMST/Donkey.wav,2,3,NEW,A,,,2,1,8.656,0,53,53,53,1,,,,,,,,,,,,,,,,,,,,,,,,,,
,,,,,,,,,,,,,,,,8,2021-11-17_15h03.10.712,Session1,2020.2.10,Win32,60,,,,,,,,,,,,,,,,,,,,,,,,,,,,,,,,,,SoundMST/Slurp.wav,2,3,NEW,A,,,2,1,10.049,0,54,54,54,1,,,,,,,,,,,,,,,,,,,,,,,,,,
,,,,,,,,,,,,,,,,8,2021-11-17_15h03.10.712,Session1,2020.2.10,Win32,60,,,,,,,,,,,,,,,,,,,,,,,,,,,,,,,,,,SoundMST/Airhorn.wav,1,1,OLD,A,,,1,1,6.866,0,55,55,55,1,,,,,,,,,,,,,,,,,,,,,,,,,,
,,,,,,,,,,,,,,,,8,2021-11-17_15h03.10.712,Session1,2020.2.10,Win32,60,,,,,,,,,,,,,,,,,,,,,,,,,,,,,,,,,,SoundMST/Cat_A.wav,1,1,OLD,A,,,1,1,7.199,0,56,56,56,1,,,,,,,,,,,,,,,,,,,,,,,,,,
,,,,,,,,,,,,,,,,8,2021-11-17_15h03.10.712,Session1,2020.2.10,Win32,60,,,,,,,,,,,,,,,,,,,,,,,,,,,,,,,,,,SoundMST/Hammer_A.wav,2,3,NEW,A,,,2,1,7.765,0,57,57,57,1,,,,,,,,,,,,,,,,,,,,,,,,,,
,,,,,,,,,,,,,,,,8,2021-11-17_15h03.10.712,Session1,2020.2.10,Win32,60,,,,,,,,,,,,,,,,,,,,,,,,,,,,,,,,,,SoundMST/Guitar_B.wav,1,1,OLD,A,,,1,1,9.324,0,58,58,58,1,,,,,,,,,,,,,,,,,,,,,,,,,,
,,,,,,,,,,,,,,,,8,2021-11-17_15h03.10.712,Session1,2020.2.10,Win32,60,,,,,,,,,,,,,,,,,,,,,,,,,,,,,,,,,,SoundMST/Howl.wav,2,3,NEW,A,,,2,1,8.315,0,59,59,59,1,,,,,,,,,,,,,,,,,,,,,,,,,,
,,,,,,,,,,,,,,,,8,2021-11-17_15h03.10.712,Session1,2020.2.10,Win32,60,,,,,,,,,,,,,,,,,,,,,,,,,,,,,,,,,,SoundMST/Bullfrog.wav,1,1,OLD,A,,,1,1,7.5,0,60,60,60,1,,,,,,,,,,,,,,,,,,,,,,,,,,
,,,,,,,,,,,,,,,,8,2021-11-17_15h03.10.712,Session1,2020.2.10,Win32,60,,,,,,,,,,,,,,,,,,,,,,,,,,,,,,,,,,SoundMST/Printer.wav,2,3,NEW,A,,,2,1,8.915,0,61,61,61,1,,,,,,,,,,,,,,,,,,,,,,,,,,
,,,,,,,,,,,,,,,,8,2021-11-17_15h03.10.712,Session1,2020.2.10,Win32,60,,,,,,,,,,,,,,,,,,,,,,,,,,,,,,,,,,SoundMST/Horse.wav,2,3,NEW,A,,,2,1,7.064,0,62,62,62,1,,,,,,,,,,,,,,,,,,,,,,,,,,
,,,,,,,,,,,,,,,,8,2021-11-17_15h03.10.712,Session1,2020.2.10,Win32,60,,,,,,,,,,,,,,,,,,,,,,,,,,,,,,,,,,SoundMST/Airplane_B.wav,2,3,NEW,A,,,2,1,9.014,0,63,63,63,1,,,,,,,,,,,,,,,,,,,,,,,,,,
,,,,,,,,,,,,,,,,8,2021-11-17_15h03.10.712,Session1,2020.2.10,Win32,60,,,,,,,,,,,,,,,,,,,,,,,,,,,,,,,,,,SoundMST/Pour_F.wav,2,3,NEW,A,,,1,0,10.997,0,64,64,64,1,,,,,,,,,,,,,,,,,,,,,,,,,,
,,,,,,,,,,,,,,,,8,2021-11-17_15h03.10.712,Session1,2020.2.10,Win32,60,,,,,,,,,,,,,,,,,,,,,,,,,,,,,,,,,,SoundMST/Dog_I.wav,2,2,SIMILAR,A,,,2,1,20.426,0,65,65,65,1,,,,,,,,,,,,,,,,,,,,,,,,,,
,,,,,,,,,,,,,,,,8,2021-11-17_15h03.10.712,Session1,2020.2.10,Win32,60,,,,,,,,,,,,,,,,,,,,,,,,,,,,,,,,,,SoundMST/Donkey.wav,1,1,OLD,A,,,1,1,4.441,0,66,66,66,1,,,,,,,,,,,,,,,,,,,,,,,,,,
,,,,,,,,,,,,,,,,8,2021-11-17_15h03.10.712,Session1,2020.2.10,Win32,60,,,,,,,,,,,,,,,,,,,,,,,,,,,,,,,,,,SoundMST/Slurp.wav,1,1,OLD,A,,,1,1,7,0,67,67,67,1,,,,,,,,,,,,,,,,,,,,,,,,,,
,,,,,,,,,,,,,,,,8,2021-11-17_15h03.10.712,Session1,2020.2.10,Win32,60,,,,,,,,,,,,,,,,,,,,,,,,,,,,,,,,,,SoundMST/HairDryer_A.wav,2,3,NEW,A,,,1,0,14.395,0,68,68,68,1,,,,,,,,,,,,,,,,,,,,,,,,,,
,,,,,,,,,,,,,,,,8,2021-11-17_15h03.10.712,Session1,2020.2.10,Win32,60,,,,,,,,,,,,,,,,,,,,,,,,,,,,,,,,,,SoundMST/Thunder_A.wav,2,3,NEW,A,,,2,1,9.964,0,69,69,69,1,,,,,,,,,,,,,,,,,,,,,,,,,,
,,,,,,,,,,,,,,,,8,2021-11-17_15h03.10.712,Session1,2020.2.10,Win32,60,,,,,,,,,,,,,,,,,,,,,,,,,,,,,,,,,,SoundMST/Sleighbells_B.wav,1,1,OLD,A,,,1,1,6.417,0,70,70,70,1,,,,,,,,,,,,,,,,,,,,,,,,,,
,,,,,,,,,,,,,,,,8,2021-11-17_15h03.10.712,Session1,2020.2.10,Win32,60,,,,,,,,,,,,,,,,,,,,,,,,,,,,,,,,,,SoundMST/Laugh_D.wav,2,2,SIMILAR,A,,,1,0,11.881,0,71,71,71,1,,,,,,,,,,,,,,,,,,,,,,,,,,
,,,,,,,,,,,,,,,,8,2021-11-17_15h03.10.712,Session1,2020.2.10,Win32,60,,,,,,,,,,,,,,,,,,,,,,,,,,,,,,,,,,SoundMST/Toilet_B.wav,2,3,NEW,A,,,2,1,7.07,0,72,72,72,1,,,,,,,,,,,,,,,,,,,,,,,,,,
,,,,,,,,,,,,,,,,8,2021-11-17_15h03.10.712,Session1,2020.2.10,Win32,60,,,,,,,,,,,,,,,,,,,,,,,,,,,,,,,,,,SoundMST/Howl.wav,1,1,OLD,A,,,1,1,7.99,0,73,73,73,1,,,,,,,,,,,,,,,,,,,,,,,,,,
,,,,,,,,,,,,,,,,8,2021-11-17_15h03.10.712,Session1,2020.2.10,Win32,60,,,,,,,,,,,,,,,,,,,,,,,,,,,,,,,,,,SoundMST/Footsteps_C.wav,2,3,NEW,A,,,2,1,7.749,0,74,74,74,1,,,,,,,,,,,,,,,,,,,,,,,,,,
,,,,,,,,,,,,,,,,8,2021-11-17_15h03.10.712,Session1,2020.2.10,Win32,60,,,,,,,,,,,,,,,,,,,,,,,,,,,,,,,,,,SoundMST/Cup.wav,2,3,NEW,A,,,2,1,11.734,0,75,75,75,1,,,,,,,,,,,,,,,,,,,,,,,,,,
,,,,,,,,,,,,,,,,8,2021-11-17_15h03.10.712,Session1,2020.2.10,Win32,60,,,,,,,,,,,,,,,,,,,,,,,,,,,,,,,,,,SoundMST/Pour_C.wav,2,2,SIMILAR,A,,,1,0,10.899,0,76,76,76,1,,,,,,,,,,,,,,,,,,,,,,,,,,
,,,,,,,,,,,,,,,,8,2021-11-17_15h03.10.712,Session1,2020.2.10,Win32,60,,,,,,,,,,,,,,,,,,,,,,,,,,,,,,,,,,SoundMST/Sneeze_B.wav,2,3,NEW,A,,,2,1,8.088,0,77,77,77,1,,,,,,,,,,,,,,,,,,,,,,,,,,
,,,,,,,,,,,,,,,,8,2021-11-17_15h03.10.712,Session1,2020.2.10,Win32,60,,,,,,,,,,,,,,,,,,,,,,,,,,,,,,,,,,SoundMST/Airplane_B.wav,1,1,OLD,A,,,1,1,10.806,0,78,78,78,1,,,,,,,,,,,,,,,,,,,,,,,,,,
,,,,,,,,,,,,,,,,8,2021-11-17_15h03.10.712,Session1,2020.2.10,Win32,60,,,,,,,,,,,,,,,,,,,,,,,,,,,,,,,,,,SoundMST/HairDryer_A.wav,1,1,OLD,A,,,1,1,9.785,0,79,79,79,1,,,,,,,,,,,,,,,,,,,,,,,,,,
,,,,,,,,,,,,,,,,8,2021-11-17_15h03.10.712,Session1,2020.2.10,Win32,60,,,,,,,,,,,,,,,,,,,,,,,,,,,,,,,,,,SoundMST/Hammer_A.wav,1,1,OLD,A,,,1,1,7.849,0,80,80,80,1,,,,,,,,,,,,,,,,,,,,,,,,,,
,,,,,,,,,,,,,,,,8,2021-11-17_15h03.10.712,Session1,2020.2.10,Win32,60,,,,,,,,,,,,,,,,,,,,,,,,,,,,,,,,,,SoundMST/Printer.wav,1,1,OLD,A,,,1,1,10.181,0,81,81,81,1,,,,,,,,,,,,,,,,,,,,,,,,,,
,,,,,,,,,,,,,,,,8,2021-11-17_15h03.10.712,Session1,2020.2.10,Win32,60,,,,,,,,,,,,,,,,,,,,,,,,,,,,,,,,,,SoundMST/Thunder_A.wav,1,1,OLD,A,,,1,1,7.266,0,82,82,82,1,,,,,,,,,,,,,,,,,,,,,,,,,,
,,,,,,,,,,,,,,,,8,2021-11-17_15h03.10.712,Session1,2020.2.10,Win32,60,,,,,,,,,,,,,,,,,,,,,,,,,,,,,,,,,,SoundMST/Cow.wav,2,3,NEW,A,,,2,1,13.434,0,83,83,83,1,,,,,,,,,,,,,,,,,,,,,,,,,,
,,,,,,,,,,,,,,,,8,2021-11-17_15h03.10.712,Session1,2020.2.10,Win32,60,,,,,,,,,,,,,,,,,,,,,,,,,,,,,,,,,,SoundMST/Cup.wav,1,1,OLD,A,,,1,1,4.453,0,84,84,84,1,,,,,,,,,,,,,,,,,,,,,,,,,,
,,,,,,,,,,,,,,,,8,2021-11-17_15h03.10.712,Session1,2020.2.10,Win32,60,,,,,,,,,,,,,,,,,,,,,,,,,,,,,,,,,,SoundMST/Growl_H.wav,2,3,NEW,A,,,2,1,9.967,0,85,85,85,1,,,,,,,,,,,,,,,,,,,,,,,,,,
,,,,,,,,,,,,,,,,8,2021-11-17_15h03.10.712,Session1,2020.2.10,Win32,60,,,,,,,,,,,,,,,,,,,,,,,,,,,,,,,,,,SoundMST/Horse.wav,1,1,OLD,A,,,1,1,9.483,0,86,86,86,1,,,,,,,,,,,,,,,,,,,,,,,,,,
,,,,,,,,,,,,,,,,8,2021-11-17_15h03.10.712,Session1,2020.2.10,Win32,60,,,,,,,,,,,,,,,,,,,,,,,,,,,,,,,,,,SoundMST/Footsteps_F.wav,2,2,SIMILAR,A,,,1,0,7.681,0,87,87,87,1,,,,,,,,,,,,,,,,,,,,,,,,,,
,,,,,,,,,,,,,,,,8,2021-11-17_15h03.10.712,Session1,2020.2.10,Win32,60,,,,,,,,,,,,,,,,,,,,,,,,,,,,,,,,,,SoundMST/DialTone.wav,2,3,NEW,A,,,2,1,7.281,0,88,88,88,1,,,,,,,,,,,,,,,,,,,,,,,,,,
,,,,,,,,,,,,,,,,8,2021-11-17_15h03.10.712,Session1,2020.2.10,Win32,60,,,,,,,,,,,,,,,,,,,,,,,,,,,,,,,,,,SoundMST/Sneeze_B.wav,1,1,OLD,A,,,1,1,8.382,0,89,89,89,1,,,,,,,,,,,,,,,,,,,,,,,,,,
,,,,,,,,,,,,,,,,8,2021-11-17_15h03.10.712,Session1,2020.2.10,Win32,60,,,,,,,,,,,,,,,,,,,,,,,,,,,,,,,,,,SoundMST/Typing.wav,2,3,NEW,A,,,2,1,8.318,0,90,90,90,1,,,,,,,,,,,,,,,,,,,,,,,,,,
,,,,,,,,,,,,,,,,8,2021-11-17_15h03.10.712,Session1,2020.2.10,Win32,60,,,,,,,,,,,,,,,,,,,,,,,,,,,,,,,,,,SoundMST/Clap_A.wav,2,3,NEW,A,,,2,1,14.711,0,91,91,91,1,,,,,,,,,,,,,,,,,,,,,,,,,,
,,,,,,,,,,,,,,,,8,2021-11-17_15h03.10.712,Session1,2020.2.10,Win32,60,,,,,,,,,,,,,,,,,,,,,,,,,,,,,,,,,,SoundMST/Cow.wav,1,1,OLD,A,,,1,1,9.249,0,92,92,92,1,,,,,,,,,,,,,,,,,,,,,,,,,,
,,,,,,,,,,,,,,,,8,2021-11-17_15h03.10.712,Session1,2020.2.10,Win32,60,,,,,,,,,,,,,,,,,,,,,,,,,,,,,,,,,,SoundMST/Droplet_B.wav,2,3,NEW,A,,,2,1,10.948,0,93,93,93,1,,,,,,,,,,,,,,,,,,,,,,,,,,
,,,,,,,,,,,,,,,,8,2021-11-17_15h03.10.712,Session1,2020.2.10,Win32,60,,,,,,,,,,,,,,,,,,,,,,,,,,,,,,,,,,SoundMST/Toilet_B.wav,1,1,OLD,A,,,1,1,7.03,0,94,94,94,1,,,,,,,,,,,,,,,,,,,,,,,,,,
,,,,,,,,,,,,,,,,8,2021-11-17_15h03.10.712,Session1,2020.2.10,Win32,60,,,,,,,,,,,,,,,,,,,,,,,,,,,,,,,,,,SoundMST/Wind_B.wav,2,3,NEW,A,,,2,1,10.749,0,95,95,95,1,,,,,,,,,,,,,,,,,,,,,,,,,,
,,,,,,,,,,,,,,,,8,2021-11-17_15h03.10.712,Session1,2020.2.10,Win32,60,,,,,,,,,,,,,,,,,,,,,,,,,,,,,,,,,,SoundMST/Whistle_B.wav,2,3,NEW,A,,,2,1,10.769,0,96,96,96,1,,,,,,,,,,,,,,,,,,,,,,,,,,
,,,,,,,,,,,,,,,,8,2021-11-17_15h03.10.712,Session1,2020.2.10,Win32,60,,,,,,,,,,,,,,,,,,,,,,,,,,,,,,,,,,SoundMST/DialTone.wav,1,1,OLD,A,,,1,1,7.234,0,97,97,97,1,,,,,,,,,,,,,,,,,,,,,,,,,,
,,,,,,,,,,,,,,,,8,2021-11-17_15h03.10.712,Session1,2020.2.10,Win32,60,,,,,,,,,,,,,,,,,,,,,,,,,,,,,,,,,,SoundMST/Fireworks.wav,2,3,NEW,A,,,2,1,12.985,0,98,98,98,1,,,,,,,,,,,,,,,,,,,,,,,,,,
,,,,,,,,,,,,,,,,8,2021-11-17_15h03.10.712,Session1,2020.2.10,Win32,60,,,,,,,,,,,,,,,,,,,,,,,,,,,,,,,,,,SoundMST/Growl_H.wav,1,1,OLD,A,,,1,1,6.749,0,99,99,99,1,,,,,,,,,,,,,,,,,,,,,,,,,,
,,,,,,,,,,,,,,,,8,2021-11-17_15h03.10.712,Session1,2020.2.10,Win32,60,,,,,,,,,,,,,,,,,,,,,,,,,,,,,,,,,,SoundMST/Typing.wav,1,1,OLD,A,,,1,1,7.299,0,100,100,100,1,,,,,,,,,,,,,,,,,,,,,,,,,,
,,,,,,,,,,,,,,,,8,2021-11-17_15h03.10.712,Session1,2020.2.10,Win32,60,,,,,,,,,,,,,,,,,,,,,,,,,,,,,,,,,,SoundMST/Bagpipe.wav,2,3,NEW,A,,,2,1,7.815,0,101,101,101,1,,,,,,,,,,,,,,,,,,,,,,,,,,
,,,,,,,,,,,,,,,,8,2021-11-17_15h03.10.712,Session1,2020.2.10,Win32,60,,,,,,,,,,,,,,,,,,,,,,,,,,,,,,,,,,SoundMST/Siren_E.wav,2,3,NEW,A,,,2,1,11.947,0,102,102,102,1,,,,,,,,,,,,,,,,,,,,,,,,,,
,,,,,,,,,,,,,,,,8,2021-11-17_15h03.10.712,Session1,2020.2.10,Win32,60,,,,,,,,,,,,,,,,,,,,,,,,,,,,,,,,,,SoundMST/Droplet_B.wav,1,1,OLD,A,,,1,1,6.215,0,103,103,103,1,,,,,,,,,,,,,,,,,,,,,,,,,,
,,,,,,,,,,,,,,,,8,2021-11-17_15h03.10.712,Session1,2020.2.10,Win32,60,,,,,,,,,,,,,,,,,,,,,,,,,,,,,,,,,,SoundMST/Wind_B.wav,1,1,OLD,A,,,1,1,7.999,0,104,104,104,1,,,,,,,,,,,,,,,,,,,,,,,,,,
,,,,,,,,,,,,,,,,8,2021-11-17_15h03.10.712,Session1,2020.2.10,Win32,60,,,,,,,,,,,,,,,,,,,,,,,,,,,,,,,,,,SoundMST/IceDrop.wav,2,3,NEW,A,,,2,1,10.219,0,105,105,105,1,,,,,,,,,,,,,,,,,,,,,,,,,,
,,,,,,,,,,,,,,,,8,2021-11-17_15h03.10.712,Session1,2020.2.10,Win32,60,,,,,,,,,,,,,,,,,,,,,,,,,,,,,,,,,,SoundMST/Clap_D.wav,2,2,SIMILAR,A,,,2,1,19.627,0,106,106,106,1,,,,,,,,,,,,,,,,,,,,,,,,,,
,,,,,,,,,,,,,,,,8,2021-11-17_15h03.10.712,Session1,2020.2.10,Win32,60,,,,,,,,,,,,,,,,,,,,,,,,,,,,,,,,,,SoundMST/PaperRip.wav,2,3,NEW,A,,,2,1,8.139,0,107,107,107,1,,,,,,,,,,,,,,,,,,,,,,,,,,
,,,,,,,,,,,,,,,,8,2021-11-17_15h03.10.712,Session1,2020.2.10,Win32,60,,,,,,,,,,,,,,,,,,,,,,,,,,,,,,,,,,SoundMST/Chomp_A.wav,2,3,NEW,A,,,2,1,6.432,0,108,108,108,1,,,,,,,,,,,,,,,,,,,,,,,,,,
,,,,,,,,,,,,,,,,8,2021-11-17_15h03.10.712,Session1,2020.2.10,Win32,60,,,,,,,,,,,,,,,,,,,,,,,,,,,,,,,,,,SoundMST/Whistle_C.wav,2,2,SIMILAR,A,,,1,0,13.733,0,109,109,109,1,,,,,,,,,,,,,,,,,,,,,,,,,,
,,,,,,,,,,,,,,,,8,2021-11-17_15h03.10.712,Session1,2020.2.10,Win32,60,,,,,,,,,,,,,,,,,,,,,,,,,,,,,,,,,,SoundMST/Fireworks.wav,1,1,OLD,A,,,2,0,11.619,0,110,110,110,1,,,,,,,,,,,,,,,,,,,,,,,,,,
,,,,,,,,,,,,,,,,8,2021-11-17_15h03.10.712,Session1,2020.2.10,Win32,60,,,,,,,,,,,,,,,,,,,,,,,,,,,,,,,,,,SoundMST/Crow_A.wav,2,3,NEW,A,,,2,1,6.89,0,111,111,111,1,,,,,,,,,,,,,,,,,,,,,,,,,,
,,,,,,,,,,,,,,,,8,2021-11-17_15h03.10.712,Session1,2020.2.10,Win32,60,,,,,,,,,,,,,,,,,,,,,,,,,,,,,,,,,,SoundMST/Bagpipe.wav,1,1,OLD,A,,,1,1,6.249,0,112,112,112,1,,,,,,,,,,,,,,,,,,,,,,,,,,
,,,,,,,,,,,,,,,,8,2021-11-17_15h03.10.712,Session1,2020.2.10,Win32,60,,,,,,,,,,,,,,,,,,,,,,,,,,,,,,,,,,SoundMST/Bowlingpins.wav,2,3,NEW,A,,,2,1,9.468,0,113,113,113,1,,,,,,,,,,,,,,,,,,,,,,,,,,
,,,,,,,,,,,,,,,,8,2021-11-17_15h03.10.712,Session1,2020.2.10,Win32,60,,,,,,,,,,,,,,,,,,,,,,,,,,,,,,,,,,SoundMST/Siren_A.wav,2,2,SIMILAR,A,,,2,1,7.732,0,114,114,114,1,,,,,,,,,,,,,,,,,,,,,,,,,,
,,,,,,,,,,,,,,,,8,2021-11-17_15h03.10.712,Session1,2020.2.10,Win32,60,,,,,,,,,,,,,,,,,,,,,,,,,,,,,,,,,,SoundMST/ManWhistle.wav,2,3,NEW,A,,,2,1,8.882,0,115,115,115,1,,,,,,,,,,,,,,,,,,,,,,,,,,
,,,,,,,,,,,,,,,,8,2021-11-17_15h03.10.712,Session1,2020.2.10,Win32,60,,,,,,,,,,,,,,,,,,,,,,,,,,,,,,,,,,SoundMST/Coin_D.wav,2,3,NEW,A,,,2,1,13.47,0,116,116,116,1,,,,,,,,,,,,,,,,,,,,,,,,,,
,,,,,,,,,,,,,,,,8,2021-11-17_15h03.10.712,Session1,2020.2.10,Win32,60,,,,,,,,,,,,,,,,,,,,,,,,,,,,,,,,,,SoundMST/PaperRip.wav,1,1,OLD,A,,,2,0,5.9,0,117,117,117,1,,,,,,,,,,,,,,,,,,,,,,,,,,
,,,,,,,,,,,,,,,,8,2021-11-17_15h03.10.712,Session1,2020.2.10,Win32,60,,,,,,,,,,,,,,,,,,,,,,,,,,,,,,,,,,SoundMST/Helicopter_A.wav,2,3,NEW,A,,,2,1,6.752,0,118,118,118,1,,,,,,,,,,,,,,,,,,,,,,,,,,
,,,,,,,,,,,,,,,,8,2021-11-17_15h03.10.712,Session1,2020.2.10,Win32,60,,,,,,,,,,,,,,,,,,,,,,,,,,,,,,,,,,SoundMST/Bubbles_A.wav,2,3,NEW,A,,,2,1,12.602,0,119,119,119,1,,,,,,,,,,,,,,,,,,,,,,,,,,
,,,,,,,,,,,,,,,,8,2021-11-17_15h03.10.712,Session1,2020.2.10,Win32,60,,,,,,,,,,,,,,,,,,,,,,,,,,,,,,,,,,SoundMST/Chomp_C.wav,2,2,SIMILAR,A,,,1,0,6.532,0,120,120,120,1,,,,,,,,,,,,,,,,,,,,,,,,,,
,,,,,,,,,,,,,,,,8,2021-11-17_15h03.10.712,Session1,2020.2.10,Win32,60,,,,,,,,,,,,,,,,,,,,,,,,,,,,,,,,,,SoundMST/Crow_A.wav,1,1,OLD,A,,,1,1,4.215,0,121,121,121,1,,,,,,,,,,,,,,,,,,,,,,,,,,
,,,,,,,,,,,,,,,,8,2021-11-17_15h03.10.712,Session1,2020.2.10,Win32,60,,,,,,,,,,,,,,,,,,,,,,,,,,,,,,,,,,SoundMST/IceDrop.wav,1,1,OLD,A,,,1,1,8.733,0,122,122,122,1,,,,,,,,,,,,,,,,,,,,,,,,,,
,,,,,,,,,,,,,,,,8,2021-11-17_15h03.10.712,Session1,2020.2.10,Win32,60,,,,,,,,,,,,,,,,,,,,,,,,,,,,,,,,,,SoundMST/ManWhistle_E.wav,2,2,SIMILAR,A,,,2,1,12.318,0,123,123,123,1,,,,,,,,,,,,,,,,,,,,,,,,,,
,,,,,,,,,,,,,,,,8,2021-11-17_15h03.10.712,Session1,2020.2.10,Win32,60,,,,,,,,,,,,,,,,,,,,,,,,,,,,,,,,,,SoundMST/Helicopter_A.wav,1,1,OLD,A,,,1,1,5.786,0,124,124,124,1,,,,,,,,,,,,,,,,,,,,,,,,,,
,,,,,,,,,,,,,,,,8,2021-11-17_15h03.10.712,Session1,2020.2.10,Win32,60,,,,,,,,,,,,,,,,,,,,,,,,,,,,,,,,,,SoundMST/Bowlingpins.wav,1,1,OLD,A,,,1,1,6.369,0,125,125,125,1,,,,,,,,,,,,,,,,,,,,,,,,,,
,,,,,,,,,,,,,,,,8,2021-11-17_15h03.10.712,Session1,2020.2.10,Win32,60,,,,,,,,,,,,,,,,,,,,,,,,,,,,,,,,,,SoundMST/Coin_E.wav,2,2,SIMILAR,A,,,2,1,9.281,0,126,126,126,1,,,,,,,,,,,,,,,,,,,,,,,,,,
,,,,,,,,,,,,,,,,8,2021-11-17_15h03.10.712,Session1,2020.2.10,Win32,60,,,,,,,,,,,,,,,,,,,,,,,,,,,,,,,,,,SoundMST/Bubbles_B.wav,2,2,SIMILAR,A,,,1,0,11.646,0,127,127,127,1,,,,,,,,,,,,,,,,,,,,,,,,,,
,,,,,,,,,,,,,,,,8,2021-11-17_15h03.10.712,Session1,2020.2.10,Win32,60,,,,,,,,,,,,,,,,,,,,,,,,,,,,,,,,,,,,,,,,,,,,,,,,,0,0,0,0,1,,,,,,,,,,,,,,,,,,,,,
,,,,,,,,,,,,,,,,8,2021-11-17_15h03.10.712,Session1,2020.2.10,Win32,60,,,,,,,,,,,,,,,,,,,,,space,85.279,,,,,,,,,,,,,,,,,,,,,,,,,,,,,,,,space,91.826,4,2.667,0,0,0,40,1,SoundMST/Chime_D.wav,SoundMST/Chime_D.wav,SAME,,,,,,,,,
,,,,,,,,,,,,,,,,8,2021-11-17_15h03.10.712,Session1,2020.2.10,Win32,60,,,,,,,,,,,,,,,,,,,,,,,,,,,,,,,,,,,,,,,,,,,,,,,,,,,,,,,,4,1.734,0,1,1,51,1,SoundMST/ManWhistle.wav,SoundMST/ManWhistle.wav,SAME,,,,,,,,,
,,,,,,,,,,,,,,,,8,2021-11-17_15h03.10.712,Session1,2020.2.10,Win32,60,,,,,,,,,,,,,,,,,,,,,,,,,,,,,,,,,,,,,,,,,,,,,,,,,,,,,,,,1,2.085,0,2,2,80,1,SoundMST/Chomp_A.wav,SoundMST/Bird_A.wav,DIFFERENT,,,,,,,,,
,,,,,,,,,,,,,,,,8,2021-11-17_15h03.10.712,Session1,2020.2.10,Win32,60,,,,,,,,,,,,,,,,,,,,,,,,,,,,,,,,,,,,,,,,,,,,,,,,,,,,,,,,1,2.117,0,3,3,59,1,SoundMST/Thunder_A.wav,SoundMST/Cuckoo_A.wav,DIFFERENT,,,,,,,,,
,,,,,,,,,,,,,,,,8,2021-11-17_15h03.10.712,Session1,2020.2.10,Win32,60,,,,,,,,,,,,,,,,,,,,,,,,,,,,,,,,,,,,,,,,,,,,,,,,,,,,,,,,4,3.5,0,4,4,57,1,SoundMST/Trumpet_B.wav,SoundMST/Trumpet_B.wav,SAME,,,,,,,,,
,,,,,,,,,,,,,,,,8,2021-11-17_15h03.10.712,Session1,2020.2.10,Win32,60,,,,,,,,,,,,,,,,,,,,,,,,,,,,,,,,,,,,,,,,,,,,,,,,,,,,,,,,3,6.516,0,5,5,9,1,SoundMST/Dog_H.wav,SoundMST/Dog_I.wav,SIMILAR,,,,,,,,,
,,,,,,,,,,,,,,,,8,2021-11-17_15h03.10.712,Session1,2020.2.10,Win32,60,,,,,,,,,,,,,,,,,,,,,,,,,,,,,,,,,,,,,,,,,,,,,,,,,,,,,,,,1,3.267,0,6,6,62,1,SoundMST/Hammer_A.wav,SoundMST/Crow_A.wav,DIFFERENT,,,,,,,,,
,,,,,,,,,,,,,,,,8,2021-11-17_15h03.10.712,Session1,2020.2.10,Win32,60,,,,,,,,,,,,,,,,,,,,,,,,,,,,,,,,,,,,,,,,,,,,,,,,,,,,,,,,1,1.801,0,7,7,75,1,SoundMST/Baby_C.wav,SoundMST/Dog_I.wav,DIFFERENT,,,,,,,,,
,,,,,,,,,,,,,,,,8,2021-11-17_15h03.10.712,Session1,2020.2.10,Win32,60,,,,,,,,,,,,,,,,,,,,,,,,,,,,,,,,,,,,,,,,,,,,,,,,,,,,,,,,1,3.001,0,8,8,63,1,SoundMST/Mosquito_B.wav,SoundMST/Camera.wav,DIFFERENT,,,,,,,,,
,,,,,,,,,,,,,,,,8,2021-11-17_15h03.10.712,Session1,2020.2.10,Win32,60,,,,,,,,,,,,,,,,,,,,,,,,,,,,,,,,,,,,,,,,,,,,,,,,,,,,,,,,3,6.198,0,9,9,10,1,SoundMST/Duck_B.wav,SoundMST/Duck_A.wav,SIMILAR,,,,,,,,,
,,,,,,,,,,,,,,,,8,2021-11-17_15h03.10.712,Session1,2020.2.10,Win32,60,,,,,,,,,,,,,,,,,,,,,,,,,,,,,,,,,,,,,,,,,,,,,,,,,,,,,,,,4,3.135,0,10,10,38,1,SoundMST/Bubbles_A.wav,SoundMST/Bubbles_A.wav,SAME,,,,,,,,,
,,,,,,,,,,,,,,,,8,2021-11-17_15h03.10.712,Session1,2020.2.10,Win32,60,,,,,,,,,,,,,,,,,,,,,,,,,,,,,,,,,,,,,,,,,,,,,,,,,,,,,,,,3,3.492,0,11,11,18,1,SoundMST/Pour_F.wav,SoundMST/Pour_C.wav,SIMILAR,,,,,,,,,
,,,,,,,,,,,,,,,,8,2021-11-17_15h03.10.712,Session1,2020.2.10,Win32,60,,,,,,,,,,,,,,,,,,,,,,,,,,,,,,,,,,,,,,,,,,,,,,,,,,,,,,,,4,1.839,0,12,12,37,1,SoundMST/Bird_C.wav,SoundMST/Bird_C.wav,SAME,,,,,,,,,
,,,,,,,,,,,,,,,,8,2021-11-17_15h03.10.712,Session1,2020.2.10,Win32,60,,,,,,,,,,,,,,,,,,,,,,,,,,,,,,,,,,,,,,,,,,,,,,,,,,,,,,,,1,1.767,0,13,13,72,1,SoundMST/Steam.wav,SoundMST/Toilet_B.wav,DIFFERENT,,,,,,,,,
,,,,,,,,,,,,,,,,8,2021-11-17_15h03.10.712,Session1,2020.2.10,Win32,60,,,,,,,,,,,,,,,,,,,,,,,,,,,,,,,,,,,,,,,,,,,,,,,,,,,,,,,,4,2.468,0,14,14,39,1,SoundMST/CarStart_E.wav,SoundMST/CarStart_E.wav,SAME,,,,,,,,,
,,,,,,,,,,,,,,,,8,2021-11-17_15h03.10.712,Session1,2020.2.10,Win32,60,,,,,,,,,,,,,,,,,,,,,,,,,,,,,,,,,,,,,,,,,,,,,,,,,,,,,,,,4,4.166,0,15,15,31,1,SoundMST/Guitar_B.wav,SoundMST/Guitar_B.wav,SAME,,,,,,,,,
,,,,,,,,,,,,,,,,8,2021-11-17_15h03.10.712,Session1,2020.2.10,Win32,60,,,,,,,,,,,,,,,,,,,,,,,,,,,,,,,,,,,,,,,,,,,,,,,,,,,,,,,,3,2.817,0,16,16,3,1,SoundMST/CarStart_E.wav,SoundMST/CarStart_D.wav,SIMILAR,,,,,,,,,
,,,,,,,,,,,,,,,,8,2021-11-17_15h03.10.712,Session1,2020.2.10,Win32,60,,,,,,,,,,,,,,,,,,,,,,,,,,,,,,,,,,,,,,,,,,,,,,,,,,,,,,,,4,3.04,0,17,17,42,1,SoundMST/Clap_A.wav,SoundMST/Clap_A.wav,SAME,,,,,,,,,
,,,,,,,,,,,,,,,,8,2021-11-17_15h03.10.712,Session1,2020.2.10,Win32,60,,,,,,,,,,,,,,,,,,,,,,,,,,,,,,,,,,,,,,,,,,,,,,,,,,,,,,,,4,3.625,0,18,18,34,1,SoundMST/DialTone.wav,SoundMST/DialTone.wav,SAME,,,,,,,,,
,,,,,,,,,,,,,,,,8,2021-11-17_15h03.10.712,Session1,2020.2.10,Win32,60,,,,,,,,,,,,,,,,,,,,,,,,,,,,,,,,,,,,,,,,,,,,,,,,,,,,,,,,4,3.302,0,19,19,49,1,SoundMST/Footsteps_C.wav,SoundMST/Footsteps_C.wav,SAME,,,,,,,,,
,,,,,,,,,,,,,,,,8,2021-11-17_15h03.10.712,Session1,2020.2.10,Win32,60,,,,,,,,,,,,,,,,,,,,,,,,,,,,,,,,,,,,,,,,,,,,,,,,,,,,,,,,4,1.651,0,20,20,33,1,SoundMST/Buzz.wav,SoundMST/Buzz.wav,SAME,,,,,,,,,
,,,,,,,,,,,,,,,,8,2021-11-17_15h03.10.712,Session1,2020.2.10,Win32,60,,,,,,,,,,,,,,,,,,,,,,,,,,,,,,,,,,,,,,,,,,,,,,,,,,,,,,,,4,1.619,0,21,21,35,1,SoundMST/Goat_C.wav,SoundMST/Goat_C.wav,SAME,,,,,,,,,
,,,,,,,,,,,,,,,,8,2021-11-17_15h03.10.712,Session1,2020.2.10,Win32,60,,,,,,,,,,,,,,,,,,,,,,,,,,,,,,,,,,,,,,,,,,,,,,,,,,,,,,,,1,1.418,0,22,22,61,1,SoundMST/Cello.wav,SoundMST/Hammer_A.wav,DIFFERENT,,,,,,,,,
,,,,,,,,,,,,,,,,8,2021-11-17_15h03.10.712,Session1,2020.2.10,Win32,60,,,,,,,,,,,,,,,,,,,,,,,,,,,,,,,,,,,,,,,,,,,,,,,,,,,,,,,,3,2.135,0,23,23,16,1,SoundMST/Phone_F.wav,SoundMST/Phone_E.wav,SIMILAR,,,,,,,,,
,,,,,,,,,,,,,,,,8,2021-11-17_15h03.10.712,Session1,2020.2.10,Win32,60,,,,,,,,,,,,,,,,,,,,,,,,,,,,,,,,,,,,,,,,,,,,,,,,,,,,,,,,1,2.289,0,24,24,76,1,SoundMST/Bird_C.wav,SoundMST/Chime_A.wav,DIFFERENT,,,,,,,,,
,,,,,,,,,,,,,,,,8,2021-11-17_15h03.10.712,Session1,2020.2.10,Win32,60,,,,,,,,,,,,,,,,,,,,,,,,,,,,,,,,,,,,,,,,,,,,,,,,,,,,,,,,3,5.834,0,25,25,15,1,SoundMST/ManWhistle.wav,SoundMST/ManWhistle_E.wav,SIMILAR,,,,,,,,,
,,,,,,,,,,,,,,,,8,2021-11-17_15h03.10.712,Session1,2020.2.10,Win32,60,,,,,,,,,,,,,,,,,,,,,,,,,,,,,,,,,,,,,,,,,,,,,,,,,,,,,,,,4,1.702,0,26,26,53,1,SoundMST/Piano_D.wav,SoundMST/Piano_D.wav,SAME,,,,,,,,,
,,,,,,,,,,,,,,,,8,2021-11-17_15h03.10.712,Session1,2020.2.10,Win32,60,,,,,,,,,,,,,,,,,,,,,,,,,,,,,,,,,,,,,,,,,,,,,,,,,,,,,,,,3,2.004,0,27,27,5,1,SoundMST/Chomp_A.wav,SoundMST/Chomp_C.wav,SIMILAR,,,,,,,,,
,,,,,,,,,,,,,,,,8,2021-11-17_15h03.10.712,Session1,2020.2.10,Win32,60,,,,,,,,,,,,,,,,,,,,,,,,,,,,,,,,,,,,,,,,,,,,,,,,,,,,,,,,4,2.186,0,28,28,29,1,SoundMST/Cup.wav,SoundMST/Cup.wav,SAME,,,,,,,,,
,,,,,,,,,,,,,,,,8,2021-11-17_15h03.10.712,Session1,2020.2.10,Win32,60,,,,,,,,,,,,,,,,,,,,,,,,,,,,,,,,,,,,,,,,,,,,,,,,,,,,,,,,4,1.586,0,29,29,56,1,SoundMST/Snore_C.wav,SoundMST/Snore_C.wav,SAME,,,,,,,,,
,,,,,,,,,,,,,,,,8,2021-11-17_15h03.10.712,Session1,2020.2.10,Win32,60,,,,,,,,,,,,,,,,,,,,,,,,,,,,,,,,,,,,,,,,,,,,,,,,,,,,,,,,4,3.053,0,30,30,44,1,SoundMST/Cough_I.wav,SoundMST/Cough_I.wav,SAME,,,,,,,,,
,,,,,,,,,,,,,,,,8,2021-11-17_15h03.10.712,Session1,2020.2.10,Win32,60,,,,,,,,,,,,,,,,,,,,,,,,,,,,,,,,,,,,,,,,,,,,,,,,,,,,,,,,4,1.402,0,31,31,36,1,SoundMST/Baby_C.wav,SoundMST/Baby_C.wav,SAME,,,,,,,,,
,,,,,,,,,,,,,,,,8,2021-11-17_15h03.10.712,Session1,2020.2.10,Win32,60,,,,,,,,,,,,,,,,,,,,,,,,,,,,,,,,,,,,,,,,,,,,,,,,,,,,,,,,4,2.67,0,32,32,24,1,SoundMST/Wind_B.wav,SoundMST/Wind_B.wav,SAME,,,,,,,,,
,,,,,,,,,,,,,,,,8,2021-11-17_15h03.10.712,Session1,2020.2.10,Win32,60,,,,,,,,,,,,,,,,,,,,,,,,,,,,,,,,,,,,,,,,,,,,,,,,,,,,,,,,3,1.692,0,33,33,21,1,SoundMST/Trumpet_B.wav,SoundMST/Trumpet_C.wav,SIMILAR,,,,,,,,,
,,,,,,,,,,,,,,,,8,2021-11-17_15h03.10.712,Session1,2020.2.10,Win32,60,,,,,,,,,,,,,,,,,,,,,,,,,,,,,,,,,,,,,,,,,,,,,,,,,,,,,,,,3,1.57,0,34,34,23,1,SoundMST/Writing_A.wav,SoundMST/Writing_C.wav,SIMILAR,,,,,,,,,
,,,,,,,,,,,,,,,,8,2021-11-17_15h03.10.712,Session1,2020.2.10,Win32,60,,,,,,,,,,,,,,,,,,,,,,,,,,,,,,,,,,,,,,,,,,,,,,,,,,,,,,,,4,3.284,0,35,35,26,1,SoundMST/Droplet_B.wav,SoundMST/Droplet_B.wav,SAME,,,,,,,,,
,,,,,,,,,,,,,,,,8,2021-11-17_15h03.10.712,Session1,2020.2.10,Win32,60,,,,,,,,,,,,,,,,,,,,,,,,,,,,,,,,,,,,,,,,,,,,,,,,,,,,,,,,3,2.451,0,36,36,2,1,SoundMST/Bubbles_A.wav,SoundMST/Bubbles_B.wav,SIMILAR,,,,,,,,,
,,,,,,,,,,,,,,,,8,2021-11-17_15h03.10.712,Session1,2020.2.10,Win32,60,,,,,,,,,,,,,,,,,,,,,,,,,,,,,,,,,,,,,,,,,,,,,,,,,,,,,,,,1,1.522,0,37,37,81,1,SoundMST/Clap_A.wav,SoundMST/Bubbles_B.wav,DIFFERENT,,,,,,,,,
,,,,,,,,,,,,,,,,8,2021-11-17_15h03.10.712,Session1,2020.2.10,Win32,60,,,,,,,,,,,,,,,,,,,,,,,,,,,,,,,,,,,,,,,,,,,,,,,,,,,,,,,,3,1.869,0,38,38,22,1,SoundMST/Whistle_B.wav,SoundMST/Whistle_C.wav,SIMILAR,,,,,,,,,
,,,,,,,,,,,,,,,,8,2021-11-17_15h03.10.712,Session1,2020.2.10,Win32,60,,,,,,,,,,,,,,,,,,,,,,,,,,,,,,,,,,,,,,,,,,,,,,,,,,,,,,,,1,1.334,0,39,39,79,1,SoundMST/Chime_D.wav,SoundMST/Baby_B.wav,DIFFERENT,,,,,,,,,
,,,,,,,,,,,,,,,,8,2021-11-17_15h03.10.712,Session1,2020.2.10,Win32,60,,,,,,,,,,,,,,,,,,,,,,,,,,,,,,,,,,,,,,,,,,,,,,,,,,,,,,,,1,19.447,0,40,40,64,1,SoundMST/Horse.wav,SoundMST/Bowlingpins.wav,DIFFERENT,,,,,,,,,
,,,,,,,,,,,,,,,,8,2021-11-17_15h03.10.712,Session1,2020.2.10,Win32,60,,,,,,,,,,,,,,,,,,,,,,,,,,,,,,,,,,,,,,,,,,,,,,,,,,,,,,,,4,1.467,0,41,41,46,1,SoundMST/Duck_B.wav,SoundMST/Duck_B.wav,SAME,,,,,,,,,
,,,,,,,,,,,,,,,,8,2021-11-17_15h03.10.712,Session1,2020.2.10,Win32,60,,,,,,,,,,,,,,,,,,,,,,,,,,,,,,,,,,,,,,,,,,,,,,,,,,,,,,,,1,1.62,0,42,42,65,1,SoundMST/Bowlingpins.wav,SoundMST/Steam.wav,DIFFERENT,,,,,,,,,
,,,,,,,,,,,,,,,,8,2021-11-17_15h03.10.712,Session1,2020.2.10,Win32,60,,,,,,,,,,,,,,,,,,,,,,,,,,,,,,,,,,,,,,,,,,,,,,,,,,,,,,,,4,1.519,0,43,43,30,1,SoundMST/PaperRip.wav,SoundMST/PaperRip.wav,SAME,,,,,,,,,
,,,,,,,,,,,,,,,,8,2021-11-17_15h03.10.712,Session1,2020.2.10,Win32,60,,,,,,,,,,,,,,,,,,,,,,,,,,,,,,,,,,,,,,,,,,,,,,,,,,,,,,,,1,2.168,0,44,44,68,1,SoundMST/Chicken_A.wav,SoundMST/Cello.wav,DIFFERENT,,,,,,,,,
,,,,,,,,,,,,,,,,8,2021-11-17_15h03.10.712,Session1,2020.2.10,Win32,60,,,,,,,,,,,,,,,,,,,,,,,,,,,,,,,,,,,,,,,,,,,,,,,,,,,,,,,,3,2.634,0,45,45,4,1,SoundMST/Chime_D.wav,SoundMST/Chime_A.wav,SIMILAR,,,,,,,,,
,,,,,,,,,,,,,,,,8,2021-11-17_15h03.10.712,Session1,2020.2.10,Win32,60,,,,,,,,,,,,,,,,,,,,,,,,,,,,,,,,,,,,,,,,,,,,,,,,,,,,,,,,3,1.406,0,46,46,8,1,SoundMST/Cough_I.wav,SoundMST/Cough_J.wav,SIMILAR,,,,,,,,,
,,,,,,,,,,,,,,,,8,2021-11-17_15h03.10.712,Session1,2020.2.10,Win32,60,,,,,,,,,,,,,,,,,,,,,,,,,,,,,,,,,,,,,,,,,,,,,,,,,,,,,,,,1,1.668,0,47,47,78,1,SoundMST/CarStart_E.wav,SoundMST/Coin_E.wav,DIFFERENT,,,,,,,,,
,,,,,,,,,,,,,,,,8,2021-11-17_15h03.10.712,Session1,2020.2.10,Win32,60,,,,,,,,,,,,,,,,,,,,,,,,,,,,,,,,,,,,,,,,,,,,,,,,,,,,,,,,3,2.221,0,48,48,14,1,SoundMST/Laugh_A.wav,SoundMST/Laugh_D.wav,SIMILAR,,,,,,,,,
,,,,,,,,,,,,,,,,8,2021-11-17_15h03.10.712,Session1,2020.2.10,Win32,60,,,,,,,,,,,,,,,,,,,,,,,,,,,,,,,,,,,,,,,,,,,,,,,,,,,,,,,,3,1.768,0,49,49,12,1,SoundMST/Faucet_A.wav,SoundMST/Faucet_C.wav,SIMILAR,,,,,,,,,
,,,,,,,,,,,,,,,,8,2021-11-17_15h03.10.712,Session1,2020.2.10,Win32,60,,,,,,,,,,,,,,,,,,,,,,,,,,,,,,,,,,,,,,,,,,,,,,,,,,,,,,,,4,3.351,0,50,50,43,1,SoundMST/Coin_D.wav,SoundMST/Coin_D.wav,SAME,,,,,,,,,
,,,,,,,,,,,,,,,,8,2021-11-17_15h03.10.712,Session1,2020.2.10,Win32,60,,,,,,,,,,,,,,,,,,,,,,,,,,,,,,,,,,,,,,,,,,,,,,,,,,,,,,,,1,2.453,0,51,51,66,1,SoundMST/Crow_A.wav,SoundMST/Typing.wav,DIFFERENT,,,,,,,,,
,,,,,,,,,,,,,,,,8,2021-11-17_15h03.10.712,Session1,2020.2.10,Win32,60,,,,,,,,,,,,,,,,,,,,,,,,,,,,,,,,,,,,,,,,,,,,,,,,,,,,,,,,3,2.616,0,52,52,20,1,SoundMST/Snore_C.wav,SoundMST/Snore_E.wav,SIMILAR,,,,,,,,,
,,,,,,,,,,,,,,,,8,2021-11-17_15h03.10.712,Session1,2020.2.10,Win32,60,,,,,,,,,,,,,,,,,,,,,,,,,,,,,,,,,,,,,,,,,,,,,,,,,,,,,,,,4,3.775,0,53,53,50,1,SoundMST/Laugh_A.wav,SoundMST/Laugh_A.wav,SAME,,,,,,,,,
,,,,,,,,,,,,,,,,8,2021-11-17_15h03.10.712,Session1,2020.2.10,Win32,60,,,,,,,,,,,,,,,,,,,,,,,,,,,,,,,,,,,,,,,,,,,,,,,,,,,,,,,,3,1.66,0,54,54,13,1,SoundMST/Footsteps_C.wav,SoundMST/Footsteps_F.wav,SIMILAR,,,,,,,,,
,,,,,,,,,,,,,,,,8,2021-11-17_15h03.10.712,Session1,2020.2.10,Win32,60,,,,,,,,,,,,,,,,,,,,,,,,,,,,,,,,,,,,,,,,,,,,,,,,,,,,,,,,3,1.326,0,55,55,0,1,SoundMST/Baby_C.wav,SoundMST/Baby_B.wav,SIMILAR,,,,,,,,,
,,,,,,,,,,,,,,,,8,2021-11-17_15h03.10.712,Session1,2020.2.10,Win32,60,,,,,,,,,,,,,,,,,,,,,,,,,,,,,,,,,,,,,,,,,,,,,,,,,,,,,,,,3,3.167,0,56,56,19,1,SoundMST/Siren_E.wav,SoundMST/Siren_A.wav,SIMILAR,,,,,,,,,
,,,,,,,,,,,,,,,,8,2021-11-17_15h03.10.712,Session1,2020.2.10,Win32,60,,,,,,,,,,,,,,,,,,,,,,,,,,,,,,,,,,,,,,,,,,,,,,,,,,,,,,,,1,1.791,0,57,57,82,1,SoundMST/Coin_D.wav,SoundMST/Elephant_A.wav,DIFFERENT,,,,,,,,,
,,,,,,,,,,,,,,,,8,2021-11-17_15h03.10.712,Session1,2020.2.10,Win32,60,,,,,,,,,,,,,,,,,,,,,,,,,,,,,,,,,,,,,,,,,,,,,,,,,,,,,,,,4,2.019,0,58,58,58,1,SoundMST/Whistle_B.wav,SoundMST/Whistle_B.wav,SAME,,,,,,,,,
,,,,,,,,,,,,,,,,8,2021-11-17_15h03.10.712,Session1,2020.2.10,Win32,60,,,,,,,,,,,,,,,,,,,,,,,,,,,,,,,,,,,,,,,,,,,,,,,,,,,,,,,,4,1.684,0,59,59,28,1,SoundMST/Fireworks.wav,SoundMST/Fireworks.wav,SAME,,,,,,,,,
,,,,,,,,,,,,,,,,8,2021-11-17_15h03.10.712,Session1,2020.2.10,Win32,60,,,,,,,,,,,,,,,,,,,,,,,,,,,,,,,,,,,,,,,,,,,,,,,,,,,,,,,,3,1.438,0,60,60,17,1,SoundMST/Piano_D.wav,SoundMST/Piano_C.wav,SIMILAR,,,,,,,,,
,,,,,,,,,,,,,,,,8,2021-11-17_15h03.10.712,Session1,2020.2.10,Win32,60,,,,,,,,,,,,,,,,,,,,,,,,,,,,,,,,,,,,,,,,,,,,,,,,,,,,,,,,1,4.751,0,61,61,74,1,SoundMST/Bullfrog.wav,SoundMST/Chicken_A.wav,DIFFERENT,,,,,,,,,
,,,,,,,,,,,,,,,,8,2021-11-17_15h03.10.712,Session1,2020.2.10,Win32,60,,,,,,,,,,,,,,,,,,,,,,,,,,,,,,,,,,,,,,,,,,,,,,,,,,,,,,,,3,1.452,0,62,62,1,1,SoundMST/Bird_C.wav,SoundMST/Bird_A.wav,SIMILAR,,,,,,,,,
,,,,,,,,,,,,,,,,8,2021-11-17_15h03.10.712,Session1,2020.2.10,Win32,60,,,,,,,,,,,,,,,,,,,,,,,,,,,,,,,,,,,,,,,,,,,,,,,,,,,,,,,,1,3.354,0,63,63,67,1,SoundMST/Cuckoo_A.wav,SoundMST/Mosquito_B.wav,DIFFERENT,,,,,,,,,
,,,,,,,,,,,,,,,,8,2021-11-17_15h03.10.712,Session1,2020.2.10,Win32,60,,,,,,,,,,,,,,,,,,,,,,,,,,,,,,,,,,,,,,,,,,,,,,,,,,,,,,,,4,1.589,0,64,64,55,1,SoundMST/Siren_E.wav,SoundMST/Siren_E.wav,SAME,,,,,,,,,
,,,,,,,,,,,,,,,,8,2021-11-17_15h03.10.712,Session1,2020.2.10,Win32,60,,,,,,,,,,,,,,,,,,,,,,,,,,,,,,,,,,,,,,,,,,,,,,,,,,,,,,,,4,3.751,0,65,65,54,1,SoundMST/Pour_F.wav,SoundMST/Pour_F.wav,SAME,,,,,,,,,
,,,,,,,,,,,,,,,,8,2021-11-17_15h03.10.712,Session1,2020.2.10,Win32,60,,,,,,,,,,,,,,,,,,,,,,,,,,,,,,,,,,,,,,,,,,,,,,,,,,,,,,,,1,2.167,0,66,66,77,1,SoundMST/Bubbles_A.wav,SoundMST/Duck_A.wav,DIFFERENT,,,,,,,,,
,,,,,,,,,,,,,,,,8,2021-11-17_15h03.10.712,Session1,2020.2.10,Win32,60,,,,,,,,,,,,,,,,,,,,,,,,,,,,,,,,,,,,,,,,,,,,,,,,,,,,,,,,1,2.253,0,67,67,71,1,SoundMST/Sleighbells_B.wav,SoundMST/Thunder_A.wav,DIFFERENT,,,,,,,,,
,,,,,,,,,,,,,,,,8,2021-11-17_15h03.10.712,Session1,2020.2.10,Win32,60,,,,,,,,,,,,,,,,,,,,,,,,,,,,,,,,,,,,,,,,,,,,,,,,,,,,,,,,4,2.784,0,68,68,27,1,SoundMST/Growl_H.wav,SoundMST/Growl_H.wav,SAME,,,,,,,,,
,,,,,,,,,,,,,,,,8,2021-11-17_15h03.10.712,Session1,2020.2.10,Win32,60,,,,,,,,,,,,,,,,,,,,,,,,,,,,,,,,,,,,,,,,,,,,,,,,,,,,,,,,1,1.351,0,69,69,70,1,SoundMST/Camera.wav,SoundMST/Sleighbells_B.wav,DIFFERENT,,,,,,,,,
,,,,,,,,,,,,,,,,8,2021-11-17_15h03.10.712,Session1,2020.2.10,Win32,60,,,,,,,,,,,,,,,,,,,,,,,,,,,,,,,,,,,,,,,,,,,,,,,,,,,,,,,,4,3.15,0,70,70,48,1,SoundMST/Faucet_A.wav,SoundMST/Faucet_A.wav,SAME,,,,,,,,,
,,,,,,,,,,,,,,,,8,2021-11-17_15h03.10.712,Session1,2020.2.10,Win32,60,,,,,,,,,,,,,,,,,,,,,,,,,,,,,,,,,,,,,,,,,,,,,,,,,,,,,,,,3,1.602,0,71,71,6,1,SoundMST/Clap_A.wav,SoundMST/Clap_D.wav,SIMILAR,,,,,,,,,
,,,,,,,,,,,,,,,,8,2021-11-17_15h03.10.712,Session1,2020.2.10,Win32,60,,,,,,,,,,,,,,,,,,,,,,,,,,,,,,,,,,,,,,,,,,,,,,,,,,,,,,,,4,3.534,0,72,72,69,1,SoundMST/Airplane_B.wav,SoundMST/Airplane_B.wav,DIFFERENT,,,,,,,,,
,,,,,,,,,,,,,,,,8,2021-11-17_15h03.10.712,Session1,2020.2.10,Win32,60,,,,,,,,,,,,,,,,,,,,,,,,,,,,,,,,,,,,,,,,,,,,,,,,,,,,,,,,3,1.484,0,73,73,11,1,SoundMST/Elephant_C.wav,SoundMST/Elephant_A.wav,SIMILAR,,,,,,,,,
,,,,,,,,,,,,,,,,8,2021-11-17_15h03.10.712,Session1,2020.2.10,Win32,60,,,,,,,,,,,,,,,,,,,,,,,,,,,,,,,,,,,,,,,,,,,,,,,,,,,,,,,,4,4.216,0,74,74,52,1,SoundMST/Phone_F.wav,SoundMST/Phone_F.wav,SAME,,,,,,,,,
,,,,,,,,,,,,,,,,8,2021-11-17_15h03.10.712,Session1,2020.2.10,Win32,60,,,,,,,,,,,,,,,,,,,,,,,,,,,,,,,,,,,,,,,,,,,,,,,,,,,,,,,,4,1.475,0,75,75,47,1,SoundMST/Elephant_C.wav,SoundMST/Elephant_C.wav,SAME,,,,,,,,,
,,,,,,,,,,,,,,,,8,2021-11-17_15h03.10.712,Session1,2020.2.10,Win32,60,,,,,,,,,,,,,,,,,,,,,,,,,,,,,,,,,,,,,,,,,,,,,,,,,,,,,,,,4,1.909,0,76,76,45,1,SoundMST/Dog_H.wav,SoundMST/Dog_H.wav,SAME,,,,,,,,,
,,,,,,,,,,,,,,,,8,2021-11-17_15h03.10.712,Session1,2020.2.10,Win32,60,,,,,,,,,,,,,,,,,,,,,,,,,,,,,,,,,,,,,,,,,,,,,,,,,,,,,,,,1,1.57,0,77,77,60,1,SoundMST/Typing.wav,SoundMST/Bullfrog.wav,DIFFERENT,,,,,,,,,
,,,,,,,,,,,,,,,,8,2021-11-17_15h03.10.712,Session1,2020.2.10,Win32,60,,,,,,,,,,,,,,,,,,,,,,,,,,,,,,,,,,,,,,,,,,,,,,,,,,,,,,,,4,6.207,0,78,78,7,1,SoundMST/Coin_D.wav,SoundMST/Coin_E.wav,SIMILAR,,,,,,,,,
,,,,,,,,,,,,,,,,8,2021-11-17_15h03.10.712,Session1,2020.2.10,Win32,60,,,,,,,,,,,,,,,,,,,,,,,,,,,,,,,,,,,,,,,,,,,,,,,,,,,,,,,,1,1.801,0,79,79,73,1,SoundMST/Toilet_B.wav,SoundMST/Horse.wav,DIFFERENT,,,,,,,,,
,,,,,,,,,,,,,,,,8,2021-11-17_15h03.10.712,Session1,2020.2.10,Win32,60,,,,,,,,,,,,,,,,,,,,,,,,,,,,,,,,,,,,,,,,,,,,,,,,,,,,,,,,4,2.684,0,80,80,32,1,SoundMST/Cow.wav,SoundMST/Cow.wav,SAME,,,,,,,,,
,,,,,,,,,,,,,,,,8,2021-11-17_15h03.10.712,Session1,2020.2.10,Win32,60,,,,,,,,,,,,,,,,,,,,,,,,,,,,,,,,,,,,,,,,,,,,,,,,,,,,,,,,4,2.552,0,81,81,41,1,SoundMST/Chomp_A.wav,SoundMST/Chomp_A.wav,SAME,,,,,,,,,
,,,,,,,,,,,,,,,,8,2021-11-17_15h03.10.712,Session1,2020.2.10,Win32,60,,,,,,,,,,,,,,,,,,,,,,,,,,,,,,,,,,,,,,,,,,,,,,,,,,,,,,,,4,2.254,0,82,82,25,1,SoundMST/Puff_A.wav,SoundMST/Puff_A.wav,SAME,,,,,,,,,
<<<<<<< HEAD
,,,,,,,,,,,,,,,,8,2021-11-17_15h03.10.712,Session1,2020.2.10,Win32,60,,,,,,,,,,,,,,,,,,,,,space,29.887,,,,,,,,,,,,,,,,,,,,,,,,,,,,,,,,,,,,,,,,,SoundMST/DialTone.wav,NEW,NA,space,24.757,dial tone,5.58,0,0,0,46,1
,,,,,,,,,,,,,,,,8,2021-11-17_15h03.10.712,Session1,2020.2.10,Win32,60,,,,,,,,,,,,,,,,,,,,,,,,,,,,,,,,,,,,,,,,,,,,,,,,,,,,,,,,,,,,,,,SoundMST/Cup.wav,NEW,NA,,,glass on a counter,5.3,0,1,1,42,1
,,,,,,,,,,,,,,,,8,2021-11-17_15h03.10.712,Session1,2020.2.10,Win32,60,,,,,,,,,,,,,,,,,,,,,,,,,,,,,,,,,,,,,,,,,,,,,,,,,,,,,,,,,,,,,,,SoundMST/Growl_H.wav,NEW,NA,,,roaring lion,5.213,0,2,2,45,1
,,,,,,,,,,,,,,,,8,2021-11-17_15h03.10.712,Session1,2020.2.10,Win32,60,,,,,,,,,,,,,,,,,,,,,,,,,,,,,,,,,,,,,,,,,,,,,,,,,,,,,,,,,,,,,,,SoundMST/Crow_A.wav,NEW,NA,,,crow,4.969,0,3,3,58,1
,,,,,,,,,,,,,,,,8,2021-11-17_15h03.10.712,Session1,2020.2.10,Win32,60,,,,,,,,,,,,,,,,,,,,,,,,,,,,,,,,,,,,,,,,,,,,,,,,,,,,,,,,,,,,,,,SoundMST/Bubbles_A.wav,NEW,NA,,,bubbles in water,10.55,0,4,4,63,1
,,,,,,,,,,,,,,,,8,2021-11-17_15h03.10.712,Session1,2020.2.10,Win32,60,,,,,,,,,,,,,,,,,,,,,,,,,,,,,,,,,,,,,,,,,,,,,,,,,,,,,,,,,,,,,,,SoundMST/Writing_A.wav,NEW,NA,,,writing on a chalkboard,5.901,0,5,5,1,1
,,,,,,,,,,,,,,,,8,2021-11-17_15h03.10.712,Session1,2020.2.10,Win32,60,,,,,,,,,,,,,,,,,,,,,,,,,,,,,,,,,,,,,,,,,,,,,,,,,,,,,,,,,,,,,,,SoundMST/Snore_C.wav,NEW,NA,,,snoring,5.515,0,6,6,16,1
,,,,,,,,,,,,,,,,8,2021-11-17_15h03.10.712,Session1,2020.2.10,Win32,60,,,,,,,,,,,,,,,,,,,,,,,,,,,,,,,,,,,,,,,,,,,,,,,,,,,,,,,,,,,,,,,SoundMST/Typing.wav,NEW,NA,,,cash register keys,23.374,0,7,7,47,1
,,,,,,,,,,,,,,,,8,2021-11-17_15h03.10.712,Session1,2020.2.10,Win32,60,,,,,,,,,,,,,,,,,,,,,,,,,,,,,,,,,,,,,,,,,,,,,,,,,,,,,,,,,,,,,,,SoundMST/Bowlingpins.wav,NEW,NA,,,bowling pins falling,5.849,0,8,8,59,1
,,,,,,,,,,,,,,,,8,2021-11-17_15h03.10.712,Session1,2020.2.10,Win32,60,,,,,,,,,,,,,,,,,,,,,,,,,,,,,,,,,,,,,,,,,,,,,,,,,,,,,,,,,,,,,,,SoundMST/Horse.wav,NEW,NA,,,horse neighing,4.916,0,9,9,35,1
,,,,,,,,,,,,,,,,8,2021-11-17_15h03.10.712,Session1,2020.2.10,Win32,60,,,,,,,,,,,,,,,,,,,,,,,,,,,,,,,,,,,,,,,,,,,,,,,,,,,,,,,,,,,,,,,SoundMST/CarStart_E.wav,NEW,NA,,,car starting,7.631,0,10,10,2,1
,,,,,,,,,,,,,,,,8,2021-11-17_15h03.10.712,Session1,2020.2.10,Win32,60,,,,,,,,,,,,,,,,,,,,,,,,,,,,,,,,,,,,,,,,,,,,,,,,,,,,,,,,,,,,,,,SoundMST/Airhorn.wav,NEW,NA,,,airhorns,6.517,0,11,11,27,1
,,,,,,,,,,,,,,,,8,2021-11-17_15h03.10.712,Session1,2020.2.10,Win32,60,,,,,,,,,,,,,,,,,,,,,,,,,,,,,,,,,,,,,,,,,,,,,,,,,,,,,,,,,,,,,,,SoundMST/Donkey.wav,NEW,NA,,,donkey braying,6.2,0,12,12,30,1
,,,,,,,,,,,,,,,,8,2021-11-17_15h03.10.712,Session1,2020.2.10,Win32,60,,,,,,,,,,,,,,,,,,,,,,,,,,,,,,,,,,,,,,,,,,,,,,,,,,,,,,,,,,,,,,,SoundMST/Cuckoo_A.wav,NEW,NA,,,cuckoo clock,4.781,0,13,13,10,1
,,,,,,,,,,,,,,,,8,2021-11-17_15h03.10.712,Session1,2020.2.10,Win32,60,,,,,,,,,,,,,,,,,,,,,,,,,,,,,,,,,,,,,,,,,,,,,,,,,,,,,,,,,,,,,,,SoundMST/Droplet_B.wav,NEW,NA,,,drop stones in water,8.285,0,14,14,49,1
,,,,,,,,,,,,,,,,8,2021-11-17_15h03.10.712,Session1,2020.2.10,Win32,60,,,,,,,,,,,,,,,,,,,,,,,,,,,,,,,,,,,,,,,,,,,,,,,,,,,,,,,,,,,,,,,SoundMST/Puff_A.wav,NEW,NA,,,squeeky toy,5.533,0,15,15,4,1
,,,,,,,,,,,,,,,,8,2021-11-17_15h03.10.712,Session1,2020.2.10,Win32,60,,,,,,,,,,,,,,,,,,,,,,,,,,,,,,,,,,,,,,,,,,,,,,,,,,,,,,,,,,,,,,,SoundMST/Steam.wav,NEW,NA,,,train,6.85,0,16,16,9,1
,,,,,,,,,,,,,,,,8,2021-11-17_15h03.10.712,Session1,2020.2.10,Win32,60,,,,,,,,,,,,,,,,,,,,,,,,,,,,,,,,,,,,,,,,,,,,,,,,,,,,,,,,,,,,,,,SoundMST/Chomp_A.wav,NEW,NA,,,eating chips,6.931,0,17,17,57,1
,,,,,,,,,,,,,,,,8,2021-11-17_15h03.10.712,Session1,2020.2.10,Win32,60,,,,,,,,,,,,,,,,,,,,,,,,,,,,,,,,,,,,,,,,,,,,,,,,,,,,,,,,,,,,,,,SoundMST/Coin_E.wav,SIMILAR,NA,,,sliding coins from table,7.3,0,18,18,86,1
,,,,,,,,,,,,,,,,8,2021-11-17_15h03.10.712,Session1,2020.2.10,Win32,60,,,,,,,,,,,,,,,,,,,,,,,,,,,,,,,,,,,,,,,,,,,,,,,,,,,,,,,,,,,,,,,SoundMST/Baby_C.wav,NEW,NA,,,baby cooing,6.233,0,19,19,19,1
,,,,,,,,,,,,,,,,8,2021-11-17_15h03.10.712,Session1,2020.2.10,Win32,60,,,,,,,,,,,,,,,,,,,,,,,,,,,,,,,,,,,,,,,,,,,,,,,,,,,,,,,,,,,,,,,SoundMST/HairDryer_A.wav,NEW,NA,,,air blowing machine starting,21.627,0,20,20,38,1
,,,,,,,,,,,,,,,,8,2021-11-17_15h03.10.712,Session1,2020.2.10,Win32,60,,,,,,,,,,,,,,,,,,,,,,,,,,,,,,,,,,,,,,,,,,,,,,,,,,,,,,,,,,,,,,,SoundMST/Duck_A.wav,SIMILAR,NA,,,duck,5.555,0,21,21,69,1
,,,,,,,,,,,,,,,,8,2021-11-17_15h03.10.712,Session1,2020.2.10,Win32,60,,,,,,,,,,,,,,,,,,,,,,,,,,,,,,,,,,,,,,,,,,,,,,,,,,,,,,,,,,,,,,,SoundMST/Guitar_B.wav,NEW,NA,,,guitar,4.298,0,22,22,24,1
,,,,,,,,,,,,,,,,8,2021-11-17_15h03.10.712,Session1,2020.2.10,Win32,60,,,,,,,,,,,,,,,,,,,,,,,,,,,,,,,,,,,,,,,,,,,,,,,,,,,,,,,,,,,,,,,SoundMST/Siren_E.wav,NEW,NA,,,emergency vehicle siren,9.797,0,23,23,54,1
,,,,,,,,,,,,,,,,8,2021-11-17_15h03.10.712,Session1,2020.2.10,Win32,60,,,,,,,,,,,,,,,,,,,,,,,,,,,,,,,,,,,,,,,,,,,,,,,,,,,,,,,,,,,,,,,SoundMST/Chime_D.wav,NEW,NA,,,bells ringing,6.735,0,24,24,20,1
,,,,,,,,,,,,,,,,8,2021-11-17_15h03.10.712,Session1,2020.2.10,Win32,60,,,,,,,,,,,,,,,,,,,,,,,,,,,,,,,,,,,,,,,,,,,,,,,,,,,,,,,,,,,,,,,SoundMST/Pour_C.wav,SIMILAR,NA,,,fluid being poured to glass,7.333,0,25,25,79,1
,,,,,,,,,,,,,,,,8,2021-11-17_15h03.10.712,Session1,2020.2.10,Win32,60,,,,,,,,,,,,,,,,,,,,,,,,,,,,,,,,,,,,,,,,,,,,,,,,,,,,,,,,,,,,,,,SoundMST/Footsteps_C.wav,NEW,NA,,,walking on staires,7.357,0,26,26,41,1
,,,,,,,,,,,,,,,,8,2021-11-17_15h03.10.712,Session1,2020.2.10,Win32,60,,,,,,,,,,,,,,,,,,,,,,,,,,,,,,,,,,,,,,,,,,,,,,,,,,,,,,,,,,,,,,,SoundMST/Snore_E.wav,SIMILAR,NA,,,snoring,5.489,0,27,27,71,1
,,,,,,,,,,,,,,,,8,2021-11-17_15h03.10.712,Session1,2020.2.10,Win32,60,,,,,,,,,,,,,,,,,,,,,,,,,,,,,,,,,,,,,,,,,,,,,,,,,,,,,,,,,,,,,,,SoundMST/Bird_A.wav,SIMILAR,NA,,,bird singing,5.583,0,28,28,75,1
,,,,,,,,,,,,,,,,8,2021-11-17_15h03.10.712,Session1,2020.2.10,Win32,60,,,,,,,,,,,,,,,,,,,,,,,,,,,,,,,,,,,,,,,,,,,,,,,,,,,,,,,,,,,,,,,SoundMST/Faucet_A.wav,NEW,NA,,,water going into container,9.329,0,29,29,21,1
,,,,,,,,,,,,,,,,8,2021-11-17_15h03.10.712,Session1,2020.2.10,Win32,60,,,,,,,,,,,,,,,,,,,,,,,,,,,,,,,,,,,,,,,,,,,,,,,,,,,,,,,,,,,,,,,SoundMST/Bird_C.wav,NEW,NA,,,bird singing,5.251,0,30,30,22,1
,,,,,,,,,,,,,,,,8,2021-11-17_15h03.10.712,Session1,2020.2.10,Win32,60,,,,,,,,,,,,,,,,,,,,,,,,,,,,,,,,,,,,,,,,,,,,,,,,,,,,,,,,,,,,,,,SoundMST/Whistle_C.wav,SIMILAR,NA,,,whistle blowing,4.532,0,31,31,82,1
,,,,,,,,,,,,,,,,8,2021-11-17_15h03.10.712,Session1,2020.2.10,Win32,60,,,,,,,,,,,,,,,,,,,,,,,,,,,,,,,,,,,,,,,,,,,,,,,,,,,,,,,,,,,,,,,SoundMST/Camera.wav,NEW,NA,,,camera shutter,5.917,0,32,32,14,1
,,,,,,,,,,,,,,,,8,2021-11-17_15h03.10.712,Session1,2020.2.10,Win32,60,,,,,,,,,,,,,,,,,,,,,,,,,,,,,,,,,,,,,,,,,,,,,,,,,,,,,,,,,,,,,,,SoundMST/Toilet_B.wav,NEW,NA,,,toilet flushing,5.384,0,33,33,40,1
,,,,,,,,,,,,,,,,8,2021-11-17_15h03.10.712,Session1,2020.2.10,Win32,60,,,,,,,,,,,,,,,,,,,,,,,,,,,,,,,,,,,,,,,,,,,,,,,,,,,,,,,,,,,,,,,SoundMST/Bullfrog.wav,NEW,NA,,,frog ribitting,5.455,0,34,34,23,1
,,,,,,,,,,,,,,,,8,2021-11-17_15h03.10.712,Session1,2020.2.10,Win32,60,,,,,,,,,,,,,,,,,,,,,,,,,,,,,,,,,,,,,,,,,,,,,,,,,,,,,,,,,,,,,,,SoundMST/Trumpet_C.wav,SIMILAR,NA,,,horn,13.183,0,35,35,66,1
,,,,,,,,,,,,,,,,8,2021-11-17_15h03.10.712,Session1,2020.2.10,Win32,60,,,,,,,,,,,,,,,,,,,,,,,,,,,,,,,,,,,,,,,,,,,,,,,,,,,,,,,,,,,,,,,SoundMST/Baby_B.wav,SIMILAR,NA,,,baby talking,9.332,0,36,36,74,1
,,,,,,,,,,,,,,,,8,2021-11-17_15h03.10.712,Session1,2020.2.10,Win32,60,,,,,,,,,,,,,,,,,,,,,,,,,,,,,,,,,,,,,,,,,,,,,,,,,,,,,,,,,,,,,,,SoundMST/Elephant_A.wav,SIMILAR,NA,,,elephant trumpeting,5.815,0,37,37,68,1
,,,,,,,,,,,,,,,,8,2021-11-17_15h03.10.712,Session1,2020.2.10,Win32,60,,,,,,,,,,,,,,,,,,,,,,,,,,,,,,,,,,,,,,,,,,,,,,,,,,,,,,,,,,,,,,,SoundMST/Cow.wav,NEW,NA,,,cow mooing,5.5,0,38,38,44,1
,,,,,,,,,,,,,,,,8,2021-11-17_15h03.10.712,Session1,2020.2.10,Win32,60,,,,,,,,,,,,,,,,,,,,,,,,,,,,,,,,,,,,,,,,,,,,,,,,,,,,,,,,,,,,,,,SoundMST/Buzz.wav,NEW,NA,,,cow mooing,10.064,0,39,39,0,1
,,,,,,,,,,,,,,,,8,2021-11-17_15h03.10.712,Session1,2020.2.10,Win32,60,,,,,,,,,,,,,,,,,,,,,,,,,,,,,,,,,,,,,,,,,,,,,,,,,,,,,,,,,,,,,,,SoundMST/Cough_I.wav,NEW,NA,,,person coughing,5.183,0,40,40,18,1
,,,,,,,,,,,,,,,,8,2021-11-17_15h03.10.712,Session1,2020.2.10,Win32,60,,,,,,,,,,,,,,,,,,,,,,,,,,,,,,,,,,,,,,,,,,,,,,,,,,,,,,,,,,,,,,,SoundMST/Coin_D.wav,NEW,NA,,,sliding coins from table,9.633,0,41,41,61,1
,,,,,,,,,,,,,,,,8,2021-11-17_15h03.10.712,Session1,2020.2.10,Win32,60,,,,,,,,,,,,,,,,,,,,,,,,,,,,,,,,,,,,,,,,,,,,,,,,,,,,,,,,,,,,,,,SoundMST/Hammer_A.wav,NEW,NA,,,door knocker,11.452,0,42,42,32,1
,,,,,,,,,,,,,,,,8,2021-11-17_15h03.10.712,Session1,2020.2.10,Win32,60,,,,,,,,,,,,,,,,,,,,,,,,,,,,,,,,,,,,,,,,,,,,,,,,,,,,,,,,,,,,,,,SoundMST/Heartbeat.wav,NEW,NA,,,heartbeat,4.933,0,43,43,6,1
,,,,,,,,,,,,,,,,8,2021-11-17_15h03.10.712,Session1,2020.2.10,Win32,60,,,,,,,,,,,,,,,,,,,,,,,,,,,,,,,,,,,,,,,,,,,,,,,,,,,,,,,,,,,,,,,SoundMST/Wind_B.wav,NEW,NA,,,wind howling,5.986,0,44,44,50,1
,,,,,,,,,,,,,,,,8,2021-11-17_15h03.10.712,Session1,2020.2.10,Win32,60,,,,,,,,,,,,,,,,,,,,,,,,,,,,,,,,,,,,,,,,,,,,,,,,,,,,,,,,,,,,,,,SoundMST/Clap_A.wav,NEW,NA,,,people clapping,7.346,0,45,45,48,1
,,,,,,,,,,,,,,,,8,2021-11-17_15h03.10.712,Session1,2020.2.10,Win32,60,,,,,,,,,,,,,,,,,,,,,,,,,,,,,,,,,,,,,,,,,,,,,,,,,,,,,,,,,,,,,,,SoundMST/Laugh_A.wav,NEW,NA,,,people laughing,5.233,0,46,46,28,1
,,,,,,,,,,,,,,,,8,2021-11-17_15h03.10.712,Session1,2020.2.10,Win32,60,,,,,,,,,,,,,,,,,,,,,,,,,,,,,,,,,,,,,,,,,,,,,,,,,,,,,,,,,,,,,,,SoundMST/Fireworks.wav,NEW,NA,,,flock of birds making noise,15.667,0,47,47,52,1
,,,,,,,,,,,,,,,,8,2021-11-17_15h03.10.712,Session1,2020.2.10,Win32,60,,,,,,,,,,,,,,,,,,,,,,,,,,,,,,,,,,,,,,,,,,,,,,,,,,,,,,,,,,,,,,,SoundMST/Chomp_C.wav,SIMILAR,NA,,,eating crunchy food,7.474,0,48,48,84,1
,,,,,,,,,,,,,,,,8,2021-11-17_15h03.10.712,Session1,2020.2.10,Win32,60,,,,,,,,,,,,,,,,,,,,,,,,,,,,,,,,,,,,,,,,,,,,,,,,,,,,,,,,,,,,,,,SoundMST/ManWhistle_E.wav,SIMILAR,NA,,,whistling,5.734,0,49,49,85,1
,,,,,,,,,,,,,,,,8,2021-11-17_15h03.10.712,Session1,2020.2.10,Win32,60,,,,,,,,,,,,,,,,,,,,,,,,,,,,,,,,,,,,,,,,,,,,,,,,,,,,,,,,,,,,,,,SoundMST/Bubbles_B.wav,SIMILAR,NA,,,bubbles in bathtub,13.278,0,50,50,87,1
,,,,,,,,,,,,,,,,8,2021-11-17_15h03.10.712,Session1,2020.2.10,Win32,60,,,,,,,,,,,,,,,,,,,,,,,,,,,,,,,,,,,,,,,,,,,,,,,,,,,,,,,,,,,,,,,SoundMST/Printer.wav,NEW,NA,,,photocopy machine,14.33,0,51,51,34,1
,,,,,,,,,,,,,,,,8,2021-11-17_15h03.10.712,Session1,2020.2.10,Win32,60,,,,,,,,,,,,,,,,,,,,,,,,,,,,,,,,,,,,,,,,,,,,,,,,,,,,,,,,,,,,,,,SoundMST/Phone_F.wav,NEW,NA,,,answering a telephone,7.014,0,52,52,15,1
,,,,,,,,,,,,,,,,8,2021-11-17_15h03.10.712,Session1,2020.2.10,Win32,60,,,,,,,,,,,,,,,,,,,,,,,,,,,,,,,,,,,,,,,,,,,,,,,,,,,,,,,,,,,,,,,SoundMST/Trumpet_B.wav,NEW,NA,,,horn,7.031,0,53,53,5,1
,,,,,,,,,,,,,,,,8,2021-11-17_15h03.10.712,Session1,2020.2.10,Win32,60,,,,,,,,,,,,,,,,,,,,,,,,,,,,,,,,,,,,,,,,,,,,,,,,,,,,,,,,,,,,,,,SoundMST/Mosquito_B.wav,NEW,NA,,,baby making noise,7.384,0,54,54,17,1
,,,,,,,,,,,,,,,,8,2021-11-17_15h03.10.712,Session1,2020.2.10,Win32,60,,,,,,,,,,,,,,,,,,,,,,,,,,,,,,,,,,,,,,,,,,,,,,,,,,,,,,,,,,,,,,,SoundMST/Duck_B.wav,NEW,NA,,,duck quacking,4.981,0,55,55,13,1
,,,,,,,,,,,,,,,,8,2021-11-17_15h03.10.712,Session1,2020.2.10,Win32,60,,,,,,,,,,,,,,,,,,,,,,,,,,,,,,,,,,,,,,,,,,,,,,,,,,,,,,,,,,,,,,,SoundMST/ManWhistle.wav,NEW,NA,,,whistling,6.332,0,56,56,60,1
,,,,,,,,,,,,,,,,8,2021-11-17_15h03.10.712,Session1,2020.2.10,Win32,60,,,,,,,,,,,,,,,,,,,,,,,,,,,,,,,,,,,,,,,,,,,,,,,,,,,,,,,,,,,,,,,SoundMST/Whistle_B.wav,NEW,NA,,,blowing a whistle,6.666,0,57,57,51,1
,,,,,,,,,,,,,,,,8,2021-11-17_15h03.10.712,Session1,2020.2.10,Win32,60,,,,,,,,,,,,,,,,,,,,,,,,,,,,,,,,,,,,,,,,,,,,,,,,,,,,,,,,,,,,,,,SoundMST/Cat_A.wav,NEW,NA,,,cat meowing,5.818,0,58,58,26,1
,,,,,,,,,,,,,,,,8,2021-11-17_15h03.10.712,Session1,2020.2.10,Win32,60,,,,,,,,,,,,,,,,,,,,,,,,,,,,,,,,,,,,,,,,,,,,,,,,,,,,,,,,,,,,,,,SoundMST/Goat_C.wav,NEW,NA,,,lamb,8.467,0,59,59,12,1
,,,,,,,,,,,,,,,,8,2021-11-17_15h03.10.712,Session1,2020.2.10,Win32,60,,,,,,,,,,,,,,,,,,,,,,,,,,,,,,,,,,,,,,,,,,,,,,,,,,,,,,,,,,,,,,,SoundMST/Pour_F.wav,NEW,NA,,,water into container,7.684,0,60,60,37,1
,,,,,,,,,,,,,,,,8,2021-11-17_15h03.10.712,Session1,2020.2.10,Win32,60,,,,,,,,,,,,,,,,,,,,,,,,,,,,,,,,,,,,,,,,,,,,,,,,,,,,,,,,,,,,,,,SoundMST/IceDrop.wav,NEW,NA,,,ice cubes into glass,6.118,0,61,61,55,1
,,,,,,,,,,,,,,,,8,2021-11-17_15h03.10.712,Session1,2020.2.10,Win32,60,,,,,,,,,,,,,,,,,,,,,,,,,,,,,,,,,,,,,,,,,,,,,,,,,,,,,,,,,,,,,,,SoundMST/Writing_C.wav,SIMILAR,NA,,,writing on a chalkboard,5.881,0,62,62,64,1
,,,,,,,,,,,,,,,,8,2021-11-17_15h03.10.712,Session1,2020.2.10,Win32,60,,,,,,,,,,,,,,,,,,,,,,,,,,,,,,,,,,,,,,,,,,,,,,,,,,,,,,,,,,,,,,,SoundMST/Sneeze_B.wav,NEW,NA,,,sneezing,3.684,0,63,63,43,1
,,,,,,,,,,,,,,,,8,2021-11-17_15h03.10.712,Session1,2020.2.10,Win32,60,,,,,,,,,,,,,,,,,,,,,,,,,,,,,,,,,,,,,,,,,,,,,,,,,,,,,,,,,,,,,,,SoundMST/Clap_D.wav,SIMILAR,NA,,,clapping,6.839,0,64,64,81,1
,,,,,,,,,,,,,,,,8,2021-11-17_15h03.10.712,Session1,2020.2.10,Win32,60,,,,,,,,,,,,,,,,,,,,,,,,,,,,,,,,,,,,,,,,,,,,,,,,,,,,,,,,,,,,,,,SoundMST/CarStart_D.wav,SIMILAR,NA,,,car engine starting,7.498,0,65,65,65,1
,,,,,,,,,,,,,,,,8,2021-11-17_15h03.10.712,Session1,2020.2.10,Win32,60,,,,,,,,,,,,,,,,,,,,,,,,,,,,,,,,,,,,,,,,,,,,,,,,,,,,,,,,,,,,,,,SoundMST/Piano_C.wav,SIMILAR,NA,,,piano,6.32,0,66,66,67,1
,,,,,,,,,,,,,,,,8,2021-11-17_15h03.10.712,Session1,2020.2.10,Win32,60,,,,,,,,,,,,,,,,,,,,,,,,,,,,,,,,,,,,,,,,,,,,,,,,,,,,,,,,,,,,,,,SoundMST/Chicken_A.wav,NEW,NA,,,chicken,4.783,0,67,67,11,1
,,,,,,,,,,,,,,,,8,2021-11-17_15h03.10.712,Session1,2020.2.10,Win32,60,,,,,,,,,,,,,,,,,,,,,,,,,,,,,,,,,,,,,,,,,,,,,,,,,,,,,,,,,,,,,,,SoundMST/Dog_H.wav,NEW,NA,,,dog barking,5.456,0,68,68,29,1
,,,,,,,,,,,,,,,,8,2021-11-17_15h03.10.712,Session1,2020.2.10,Win32,60,,,,,,,,,,,,,,,,,,,,,,,,,,,,,,,,,,,,,,,,,,,,,,,,,,,,,,,,,,,,,,,SoundMST/Elephant_C.wav,NEW,NA,,,elephant trumpeting,5.121,0,69,69,3,1
,,,,,,,,,,,,,,,,8,2021-11-17_15h03.10.712,Session1,2020.2.10,Win32,60,,,,,,,,,,,,,,,,,,,,,,,,,,,,,,,,,,,,,,,,,,,,,,,,,,,,,,,,,,,,,,,SoundMST/Bagpipe.wav,NEW,NA,,,bagpipes,5.2,0,70,70,53,1
,,,,,,,,,,,,,,,,8,2021-11-17_15h03.10.712,Session1,2020.2.10,Win32,60,,,,,,,,,,,,,,,,,,,,,,,,,,,,,,,,,,,,,,,,,,,,,,,,,,,,,,,,,,,,,,,SoundMST/Slurp.wav,NEW,NA,,,slurping fluid,7.872,0,71,71,31,1
,,,,,,,,,,,,,,,,8,2021-11-17_15h03.10.712,Session1,2020.2.10,Win32,60,,,,,,,,,,,,,,,,,,,,,,,,,,,,,,,,,,,,,,,,,,,,,,,,,,,,,,,,,,,,,,,SoundMST/Piano_D.wav,NEW,NA,,,playing the piano,5.906,0,72,72,7,1
,,,,,,,,,,,,,,,,8,2021-11-17_15h03.10.712,Session1,2020.2.10,Win32,60,,,,,,,,,,,,,,,,,,,,,,,,,,,,,,,,,,,,,,,,,,,,,,,,,,,,,,,,,,,,,,,SoundMST/Airplane_B.wav,NEW,NA,,,vehicle approaching,11.846,0,73,73,36,1
,,,,,,,,,,,,,,,,8,2021-11-17_15h03.10.712,Session1,2020.2.10,Win32,60,,,,,,,,,,,,,,,,,,,,,,,,,,,,,,,,,,,,,,,,,,,,,,,,,,,,,,,,,,,,,,,SoundMST/PaperRip.wav,NEW,NA,,,Don't know,11.25,0,74,74,56,1
,,,,,,,,,,,,,,,,8,2021-11-17_15h03.10.712,Session1,2020.2.10,Win32,60,,,,,,,,,,,,,,,,,,,,,,,,,,,,,,,,,,,,,,,,,,,,,,,,,,,,,,,,,,,,,,,SoundMST/Howl.wav,NEW,NA,,,coyote howling,5.654,0,75,75,33,1
,,,,,,,,,,,,,,,,8,2021-11-17_15h03.10.712,Session1,2020.2.10,Win32,60,,,,,,,,,,,,,,,,,,,,,,,,,,,,,,,,,,,,,,,,,,,,,,,,,,,,,,,,,,,,,,,SoundMST/Helicopter_A.wav,NEW,NA,,,helicopter,5.117,0,76,76,62,1
,,,,,,,,,,,,,,,,8,2021-11-17_15h03.10.712,Session1,2020.2.10,Win32,60,,,,,,,,,,,,,,,,,,,,,,,,,,,,,,,,,,,,,,,,,,,,,,,,,,,,,,,,,,,,,,,SoundMST/Dog_I.wav,SIMILAR,NA,,,dog barking,4.917,0,77,77,77,1
,,,,,,,,,,,,,,,,8,2021-11-17_15h03.10.712,Session1,2020.2.10,Win32,60,,,,,,,,,,,,,,,,,,,,,,,,,,,,,,,,,,,,,,,,,,,,,,,,,,,,,,,,,,,,,,,SoundMST/Footsteps_F.wav,SIMILAR,NA,,,walking on staires,7.505,0,78,78,80,1
,,,,,,,,,,,,,,,,8,2021-11-17_15h03.10.712,Session1,2020.2.10,Win32,60,,,,,,,,,,,,,,,,,,,,,,,,,,,,,,,,,,,,,,,,,,,,,,,,,,,,,,,,,,,,,,,SoundMST/Siren_A.wav,SIMILAR,NA,,,emergency vehicle siren,14.169,0,79,79,83,1
,,,,,,,,,,,,,,,,8,2021-11-17_15h03.10.712,Session1,2020.2.10,Win32,60,,,,,,,,,,,,,,,,,,,,,,,,,,,,,,,,,,,,,,,,,,,,,,,,,,,,,,,,,,,,,,,SoundMST/Cello.wav,NEW,NA,,,playing the cello,8.634,0,80,80,8,1
,,,,,,,,,,,,,,,,8,2021-11-17_15h03.10.712,Session1,2020.2.10,Win32,60,,,,,,,,,,,,,,,,,,,,,,,,,,,,,,,,,,,,,,,,,,,,,,,,,,,,,,,,,,,,,,,SoundMST/Cough_J.wav,SIMILAR,NA,,,coughing,5.265,0,81,81,76,1
,,,,,,,,,,,,,,,,8,2021-11-17_15h03.10.712,Session1,2020.2.10,Win32,60,,,,,,,,,,,,,,,,,,,,,,,,,,,,,,,,,,,,,,,,,,,,,,,,,,,,,,,,,,,,,,,SoundMST/Chime_A.wav,SIMILAR,NA,,,bells ringing,5.954,0,82,82,72,1
,,,,,,,,,,,,,,,,8,2021-11-17_15h03.10.712,Session1,2020.2.10,Win32,60,,,,,,,,,,,,,,,,,,,,,,,,,,,,,,,,,,,,,,,,,,,,,,,,,,,,,,,,,,,,,,,SoundMST/Laugh_D.wav,SIMILAR,NA,,,people laughing,5.615,0,83,83,78,1
,,,,,,,,,,,,,,,,8,2021-11-17_15h03.10.712,Session1,2020.2.10,Win32,60,,,,,,,,,,,,,,,,,,,,,,,,,,,,,,,,,,,,,,,,,,,,,,,,,,,,,,,,,,,,,,,SoundMST/Thunder_A.wav,NEW,NA,,,thunder,7.705,0,84,84,39,1
,,,,,,,,,,,,,,,,8,2021-11-17_15h03.10.712,Session1,2020.2.10,Win32,60,,,,,,,,,,,,,,,,,,,,,,,,,,,,,,,,,,,,,,,,,,,,,,,,,,,,,,,,,,,,,,,SoundMST/Phone_E.wav,SIMILAR,NA,,,telephone ringing,4.965,0,85,85,70,1
,,,,,,,,,,,,,,,,8,2021-11-17_15h03.10.712,Session1,2020.2.10,Win32,60,,,,,,,,,,,,,,,,,,,,,,,,,,,,,,,,,,,,,,,,,,,,,,,,,,,,,,,,,,,,,,,SoundMST/Faucet_C.wav,SIMILAR,NA,,,water being turned on,11.179,0,86,86,73,1
,,,,,,,,,,,,,,,,8,2021-11-17_15h03.10.712,Session1,2020.2.10,Win32,60,,,,,,,,,,,,,,,,,,,,,,,,,,,,,,,,,,,,,,,,,,,,,,,,,,,,,,,,,,,,,,,SoundMST/Sleighbells_B.wav,NEW,NA,,,christmas bells,9.985,0,87,87,25,1
=======
,,,,,,,,,,,,,,,,8,2021-11-17_15h03.10.712,Session1,2020.2.10,Win32,60,,,,,,,,,,,,,,,,,,,,,space,29.887,,,,,,,,,,,,,,,,,,,,,,,,,,,,,,,,,,,,,,,,,SoundMST/DialTone.wav,NEW,NA,space,24.757,space,5.58,0,0,0,46,1
,,,,,,,,,,,,,,,,8,2021-11-17_15h03.10.712,Session1,2020.2.10,Win32,60,,,,,,,,,,,,,,,,,,,,,,,,,,,,,,,,,,,,,,,,,,,,,,,,,,,,,,,,,,,,,,,SoundMST/Cup.wav,NEW,NA,,,space,5.3,0,1,1,42,1
,,,,,,,,,,,,,,,,8,2021-11-17_15h03.10.712,Session1,2020.2.10,Win32,60,,,,,,,,,,,,,,,,,,,,,,,,,,,,,,,,,,,,,,,,,,,,,,,,,,,,,,,,,,,,,,,SoundMST/Growl_H.wav,NEW,NA,,,space,5.213,0,2,2,45,1
,,,,,,,,,,,,,,,,8,2021-11-17_15h03.10.712,Session1,2020.2.10,Win32,60,,,,,,,,,,,,,,,,,,,,,,,,,,,,,,,,,,,,,,,,,,,,,,,,,,,,,,,,,,,,,,,SoundMST/Crow_A.wav,NEW,NA,,,space,4.969,0,3,3,58,1
,,,,,,,,,,,,,,,,8,2021-11-17_15h03.10.712,Session1,2020.2.10,Win32,60,,,,,,,,,,,,,,,,,,,,,,,,,,,,,,,,,,,,,,,,,,,,,,,,,,,,,,,,,,,,,,,SoundMST/Bubbles_A.wav,NEW,NA,,,space,10.55,0,4,4,63,1
,,,,,,,,,,,,,,,,8,2021-11-17_15h03.10.712,Session1,2020.2.10,Win32,60,,,,,,,,,,,,,,,,,,,,,,,,,,,,,,,,,,,,,,,,,,,,,,,,,,,,,,,,,,,,,,,SoundMST/Writing_A.wav,NEW,NA,,,space,5.901,0,5,5,1,1
,,,,,,,,,,,,,,,,8,2021-11-17_15h03.10.712,Session1,2020.2.10,Win32,60,,,,,,,,,,,,,,,,,,,,,,,,,,,,,,,,,,,,,,,,,,,,,,,,,,,,,,,,,,,,,,,SoundMST/Snore_C.wav,NEW,NA,,,space,5.515,0,6,6,16,1
,,,,,,,,,,,,,,,,8,2021-11-17_15h03.10.712,Session1,2020.2.10,Win32,60,,,,,,,,,,,,,,,,,,,,,,,,,,,,,,,,,,,,,,,,,,,,,,,,,,,,,,,,,,,,,,,SoundMST/Typing.wav,NEW,NA,,,space,23.374,0,7,7,47,1
,,,,,,,,,,,,,,,,8,2021-11-17_15h03.10.712,Session1,2020.2.10,Win32,60,,,,,,,,,,,,,,,,,,,,,,,,,,,,,,,,,,,,,,,,,,,,,,,,,,,,,,,,,,,,,,,SoundMST/Bowlingpins.wav,NEW,NA,,,space,5.849,0,8,8,59,1
,,,,,,,,,,,,,,,,8,2021-11-17_15h03.10.712,Session1,2020.2.10,Win32,60,,,,,,,,,,,,,,,,,,,,,,,,,,,,,,,,,,,,,,,,,,,,,,,,,,,,,,,,,,,,,,,SoundMST/Horse.wav,NEW,NA,,,space,4.916,0,9,9,35,1
,,,,,,,,,,,,,,,,8,2021-11-17_15h03.10.712,Session1,2020.2.10,Win32,60,,,,,,,,,,,,,,,,,,,,,,,,,,,,,,,,,,,,,,,,,,,,,,,,,,,,,,,,,,,,,,,SoundMST/CarStart_E.wav,NEW,NA,,,space,7.631,0,10,10,2,1
,,,,,,,,,,,,,,,,8,2021-11-17_15h03.10.712,Session1,2020.2.10,Win32,60,,,,,,,,,,,,,,,,,,,,,,,,,,,,,,,,,,,,,,,,,,,,,,,,,,,,,,,,,,,,,,,SoundMST/Airhorn.wav,NEW,NA,,,space,6.517,0,11,11,27,1
,,,,,,,,,,,,,,,,8,2021-11-17_15h03.10.712,Session1,2020.2.10,Win32,60,,,,,,,,,,,,,,,,,,,,,,,,,,,,,,,,,,,,,,,,,,,,,,,,,,,,,,,,,,,,,,,SoundMST/Donkey.wav,NEW,NA,,,space,6.2,0,12,12,30,1
,,,,,,,,,,,,,,,,8,2021-11-17_15h03.10.712,Session1,2020.2.10,Win32,60,,,,,,,,,,,,,,,,,,,,,,,,,,,,,,,,,,,,,,,,,,,,,,,,,,,,,,,,,,,,,,,SoundMST/Cuckoo_A.wav,NEW,NA,,,space,4.781,0,13,13,10,1
,,,,,,,,,,,,,,,,8,2021-11-17_15h03.10.712,Session1,2020.2.10,Win32,60,,,,,,,,,,,,,,,,,,,,,,,,,,,,,,,,,,,,,,,,,,,,,,,,,,,,,,,,,,,,,,,SoundMST/Droplet_B.wav,NEW,NA,,,space,8.285,0,14,14,49,1
,,,,,,,,,,,,,,,,8,2021-11-17_15h03.10.712,Session1,2020.2.10,Win32,60,,,,,,,,,,,,,,,,,,,,,,,,,,,,,,,,,,,,,,,,,,,,,,,,,,,,,,,,,,,,,,,SoundMST/Puff_A.wav,NEW,NA,,,space,5.533,0,15,15,4,1
,,,,,,,,,,,,,,,,8,2021-11-17_15h03.10.712,Session1,2020.2.10,Win32,60,,,,,,,,,,,,,,,,,,,,,,,,,,,,,,,,,,,,,,,,,,,,,,,,,,,,,,,,,,,,,,,SoundMST/Steam.wav,NEW,NA,,,space,6.85,0,16,16,9,1
,,,,,,,,,,,,,,,,8,2021-11-17_15h03.10.712,Session1,2020.2.10,Win32,60,,,,,,,,,,,,,,,,,,,,,,,,,,,,,,,,,,,,,,,,,,,,,,,,,,,,,,,,,,,,,,,SoundMST/Chomp_A.wav,NEW,NA,,,space,6.931,0,17,17,57,1
,,,,,,,,,,,,,,,,8,2021-11-17_15h03.10.712,Session1,2020.2.10,Win32,60,,,,,,,,,,,,,,,,,,,,,,,,,,,,,,,,,,,,,,,,,,,,,,,,,,,,,,,,,,,,,,,SoundMST/Coin_E.wav,SIMILAR,NA,,,space,7.3,0,18,18,86,1
,,,,,,,,,,,,,,,,8,2021-11-17_15h03.10.712,Session1,2020.2.10,Win32,60,,,,,,,,,,,,,,,,,,,,,,,,,,,,,,,,,,,,,,,,,,,,,,,,,,,,,,,,,,,,,,,SoundMST/Baby_C.wav,NEW,NA,,,space,6.233,0,19,19,19,1
,,,,,,,,,,,,,,,,8,2021-11-17_15h03.10.712,Session1,2020.2.10,Win32,60,,,,,,,,,,,,,,,,,,,,,,,,,,,,,,,,,,,,,,,,,,,,,,,,,,,,,,,,,,,,,,,SoundMST/HairDryer_A.wav,NEW,NA,,,space,21.627,0,20,20,38,1
,,,,,,,,,,,,,,,,8,2021-11-17_15h03.10.712,Session1,2020.2.10,Win32,60,,,,,,,,,,,,,,,,,,,,,,,,,,,,,,,,,,,,,,,,,,,,,,,,,,,,,,,,,,,,,,,SoundMST/Duck_A.wav,SIMILAR,NA,,,space,5.555,0,21,21,69,1
,,,,,,,,,,,,,,,,8,2021-11-17_15h03.10.712,Session1,2020.2.10,Win32,60,,,,,,,,,,,,,,,,,,,,,,,,,,,,,,,,,,,,,,,,,,,,,,,,,,,,,,,,,,,,,,,SoundMST/Guitar_B.wav,NEW,NA,,,space,4.298,0,22,22,24,1
,,,,,,,,,,,,,,,,8,2021-11-17_15h03.10.712,Session1,2020.2.10,Win32,60,,,,,,,,,,,,,,,,,,,,,,,,,,,,,,,,,,,,,,,,,,,,,,,,,,,,,,,,,,,,,,,SoundMST/Siren_E.wav,NEW,NA,,,space,9.797,0,23,23,54,1
,,,,,,,,,,,,,,,,8,2021-11-17_15h03.10.712,Session1,2020.2.10,Win32,60,,,,,,,,,,,,,,,,,,,,,,,,,,,,,,,,,,,,,,,,,,,,,,,,,,,,,,,,,,,,,,,SoundMST/Chime_D.wav,NEW,NA,,,space,6.735,0,24,24,20,1
,,,,,,,,,,,,,,,,8,2021-11-17_15h03.10.712,Session1,2020.2.10,Win32,60,,,,,,,,,,,,,,,,,,,,,,,,,,,,,,,,,,,,,,,,,,,,,,,,,,,,,,,,,,,,,,,SoundMST/Pour_C.wav,SIMILAR,NA,,,space,7.333,0,25,25,79,1
,,,,,,,,,,,,,,,,8,2021-11-17_15h03.10.712,Session1,2020.2.10,Win32,60,,,,,,,,,,,,,,,,,,,,,,,,,,,,,,,,,,,,,,,,,,,,,,,,,,,,,,,,,,,,,,,SoundMST/Footsteps_C.wav,NEW,NA,,,space,7.357,0,26,26,41,1
,,,,,,,,,,,,,,,,8,2021-11-17_15h03.10.712,Session1,2020.2.10,Win32,60,,,,,,,,,,,,,,,,,,,,,,,,,,,,,,,,,,,,,,,,,,,,,,,,,,,,,,,,,,,,,,,SoundMST/Snore_E.wav,SIMILAR,NA,,,space,5.489,0,27,27,71,1
,,,,,,,,,,,,,,,,8,2021-11-17_15h03.10.712,Session1,2020.2.10,Win32,60,,,,,,,,,,,,,,,,,,,,,,,,,,,,,,,,,,,,,,,,,,,,,,,,,,,,,,,,,,,,,,,SoundMST/Bird_A.wav,SIMILAR,NA,,,space,5.583,0,28,28,75,1
,,,,,,,,,,,,,,,,8,2021-11-17_15h03.10.712,Session1,2020.2.10,Win32,60,,,,,,,,,,,,,,,,,,,,,,,,,,,,,,,,,,,,,,,,,,,,,,,,,,,,,,,,,,,,,,,SoundMST/Faucet_A.wav,NEW,NA,,,space,9.329,0,29,29,21,1
,,,,,,,,,,,,,,,,8,2021-11-17_15h03.10.712,Session1,2020.2.10,Win32,60,,,,,,,,,,,,,,,,,,,,,,,,,,,,,,,,,,,,,,,,,,,,,,,,,,,,,,,,,,,,,,,SoundMST/Bird_C.wav,NEW,NA,,,space,5.251,0,30,30,22,1
,,,,,,,,,,,,,,,,8,2021-11-17_15h03.10.712,Session1,2020.2.10,Win32,60,,,,,,,,,,,,,,,,,,,,,,,,,,,,,,,,,,,,,,,,,,,,,,,,,,,,,,,,,,,,,,,SoundMST/Whistle_C.wav,SIMILAR,NA,,,space,4.532,0,31,31,82,1
,,,,,,,,,,,,,,,,8,2021-11-17_15h03.10.712,Session1,2020.2.10,Win32,60,,,,,,,,,,,,,,,,,,,,,,,,,,,,,,,,,,,,,,,,,,,,,,,,,,,,,,,,,,,,,,,SoundMST/Camera.wav,NEW,NA,,,space,5.917,0,32,32,14,1
,,,,,,,,,,,,,,,,8,2021-11-17_15h03.10.712,Session1,2020.2.10,Win32,60,,,,,,,,,,,,,,,,,,,,,,,,,,,,,,,,,,,,,,,,,,,,,,,,,,,,,,,,,,,,,,,SoundMST/Toilet_B.wav,NEW,NA,,,space,5.384,0,33,33,40,1
,,,,,,,,,,,,,,,,8,2021-11-17_15h03.10.712,Session1,2020.2.10,Win32,60,,,,,,,,,,,,,,,,,,,,,,,,,,,,,,,,,,,,,,,,,,,,,,,,,,,,,,,,,,,,,,,SoundMST/Bullfrog.wav,NEW,NA,,,space,5.455,0,34,34,23,1
,,,,,,,,,,,,,,,,8,2021-11-17_15h03.10.712,Session1,2020.2.10,Win32,60,,,,,,,,,,,,,,,,,,,,,,,,,,,,,,,,,,,,,,,,,,,,,,,,,,,,,,,,,,,,,,,SoundMST/Trumpet_C.wav,SIMILAR,NA,,,space,13.183,0,35,35,66,1
,,,,,,,,,,,,,,,,8,2021-11-17_15h03.10.712,Session1,2020.2.10,Win32,60,,,,,,,,,,,,,,,,,,,,,,,,,,,,,,,,,,,,,,,,,,,,,,,,,,,,,,,,,,,,,,,SoundMST/Baby_B.wav,SIMILAR,NA,,,space,9.332,0,36,36,74,1
,,,,,,,,,,,,,,,,8,2021-11-17_15h03.10.712,Session1,2020.2.10,Win32,60,,,,,,,,,,,,,,,,,,,,,,,,,,,,,,,,,,,,,,,,,,,,,,,,,,,,,,,,,,,,,,,SoundMST/Elephant_A.wav,SIMILAR,NA,,,space,5.815,0,37,37,68,1
,,,,,,,,,,,,,,,,8,2021-11-17_15h03.10.712,Session1,2020.2.10,Win32,60,,,,,,,,,,,,,,,,,,,,,,,,,,,,,,,,,,,,,,,,,,,,,,,,,,,,,,,,,,,,,,,SoundMST/Cow.wav,NEW,NA,,,space,5.5,0,38,38,44,1
,,,,,,,,,,,,,,,,8,2021-11-17_15h03.10.712,Session1,2020.2.10,Win32,60,,,,,,,,,,,,,,,,,,,,,,,,,,,,,,,,,,,,,,,,,,,,,,,,,,,,,,,,,,,,,,,SoundMST/Buzz.wav,NEW,NA,,,space,10.064,0,39,39,0,1
,,,,,,,,,,,,,,,,8,2021-11-17_15h03.10.712,Session1,2020.2.10,Win32,60,,,,,,,,,,,,,,,,,,,,,,,,,,,,,,,,,,,,,,,,,,,,,,,,,,,,,,,,,,,,,,,SoundMST/Cough_I.wav,NEW,NA,,,space,5.183,0,40,40,18,1
,,,,,,,,,,,,,,,,8,2021-11-17_15h03.10.712,Session1,2020.2.10,Win32,60,,,,,,,,,,,,,,,,,,,,,,,,,,,,,,,,,,,,,,,,,,,,,,,,,,,,,,,,,,,,,,,SoundMST/Coin_D.wav,NEW,NA,,,space,9.633,0,41,41,61,1
,,,,,,,,,,,,,,,,8,2021-11-17_15h03.10.712,Session1,2020.2.10,Win32,60,,,,,,,,,,,,,,,,,,,,,,,,,,,,,,,,,,,,,,,,,,,,,,,,,,,,,,,,,,,,,,,SoundMST/Hammer_A.wav,NEW,NA,,,space,11.452,0,42,42,32,1
,,,,,,,,,,,,,,,,8,2021-11-17_15h03.10.712,Session1,2020.2.10,Win32,60,,,,,,,,,,,,,,,,,,,,,,,,,,,,,,,,,,,,,,,,,,,,,,,,,,,,,,,,,,,,,,,SoundMST/Heartbeat.wav,NEW,NA,,,space,4.933,0,43,43,6,1
,,,,,,,,,,,,,,,,8,2021-11-17_15h03.10.712,Session1,2020.2.10,Win32,60,,,,,,,,,,,,,,,,,,,,,,,,,,,,,,,,,,,,,,,,,,,,,,,,,,,,,,,,,,,,,,,SoundMST/Wind_B.wav,NEW,NA,,,space,5.986,0,44,44,50,1
,,,,,,,,,,,,,,,,8,2021-11-17_15h03.10.712,Session1,2020.2.10,Win32,60,,,,,,,,,,,,,,,,,,,,,,,,,,,,,,,,,,,,,,,,,,,,,,,,,,,,,,,,,,,,,,,SoundMST/Clap_A.wav,NEW,NA,,,space,7.346,0,45,45,48,1
,,,,,,,,,,,,,,,,8,2021-11-17_15h03.10.712,Session1,2020.2.10,Win32,60,,,,,,,,,,,,,,,,,,,,,,,,,,,,,,,,,,,,,,,,,,,,,,,,,,,,,,,,,,,,,,,SoundMST/Laugh_A.wav,NEW,NA,,,space,5.233,0,46,46,28,1
,,,,,,,,,,,,,,,,8,2021-11-17_15h03.10.712,Session1,2020.2.10,Win32,60,,,,,,,,,,,,,,,,,,,,,,,,,,,,,,,,,,,,,,,,,,,,,,,,,,,,,,,,,,,,,,,SoundMST/Fireworks.wav,NEW,NA,,,space,15.667,0,47,47,52,1
,,,,,,,,,,,,,,,,8,2021-11-17_15h03.10.712,Session1,2020.2.10,Win32,60,,,,,,,,,,,,,,,,,,,,,,,,,,,,,,,,,,,,,,,,,,,,,,,,,,,,,,,,,,,,,,,SoundMST/Chomp_C.wav,SIMILAR,NA,,,space,7.474,0,48,48,84,1
,,,,,,,,,,,,,,,,8,2021-11-17_15h03.10.712,Session1,2020.2.10,Win32,60,,,,,,,,,,,,,,,,,,,,,,,,,,,,,,,,,,,,,,,,,,,,,,,,,,,,,,,,,,,,,,,SoundMST/ManWhistle_E.wav,SIMILAR,NA,,,space,5.734,0,49,49,85,1
,,,,,,,,,,,,,,,,8,2021-11-17_15h03.10.712,Session1,2020.2.10,Win32,60,,,,,,,,,,,,,,,,,,,,,,,,,,,,,,,,,,,,,,,,,,,,,,,,,,,,,,,,,,,,,,,SoundMST/Bubbles_B.wav,SIMILAR,NA,,,space,13.278,0,50,50,87,1
,,,,,,,,,,,,,,,,8,2021-11-17_15h03.10.712,Session1,2020.2.10,Win32,60,,,,,,,,,,,,,,,,,,,,,,,,,,,,,,,,,,,,,,,,,,,,,,,,,,,,,,,,,,,,,,,SoundMST/Printer.wav,NEW,NA,,,space,14.33,0,51,51,34,1
,,,,,,,,,,,,,,,,8,2021-11-17_15h03.10.712,Session1,2020.2.10,Win32,60,,,,,,,,,,,,,,,,,,,,,,,,,,,,,,,,,,,,,,,,,,,,,,,,,,,,,,,,,,,,,,,SoundMST/Phone_F.wav,NEW,NA,,,space,7.014,0,52,52,15,1
,,,,,,,,,,,,,,,,8,2021-11-17_15h03.10.712,Session1,2020.2.10,Win32,60,,,,,,,,,,,,,,,,,,,,,,,,,,,,,,,,,,,,,,,,,,,,,,,,,,,,,,,,,,,,,,,SoundMST/Trumpet_B.wav,NEW,NA,,,space,7.031,0,53,53,5,1
,,,,,,,,,,,,,,,,8,2021-11-17_15h03.10.712,Session1,2020.2.10,Win32,60,,,,,,,,,,,,,,,,,,,,,,,,,,,,,,,,,,,,,,,,,,,,,,,,,,,,,,,,,,,,,,,SoundMST/Mosquito_B.wav,NEW,NA,,,space,7.384,0,54,54,17,1
,,,,,,,,,,,,,,,,8,2021-11-17_15h03.10.712,Session1,2020.2.10,Win32,60,,,,,,,,,,,,,,,,,,,,,,,,,,,,,,,,,,,,,,,,,,,,,,,,,,,,,,,,,,,,,,,SoundMST/Duck_B.wav,NEW,NA,,,space,4.981,0,55,55,13,1
,,,,,,,,,,,,,,,,8,2021-11-17_15h03.10.712,Session1,2020.2.10,Win32,60,,,,,,,,,,,,,,,,,,,,,,,,,,,,,,,,,,,,,,,,,,,,,,,,,,,,,,,,,,,,,,,SoundMST/ManWhistle.wav,NEW,NA,,,space,6.332,0,56,56,60,1
,,,,,,,,,,,,,,,,8,2021-11-17_15h03.10.712,Session1,2020.2.10,Win32,60,,,,,,,,,,,,,,,,,,,,,,,,,,,,,,,,,,,,,,,,,,,,,,,,,,,,,,,,,,,,,,,SoundMST/Whistle_B.wav,NEW,NA,,,space,6.666,0,57,57,51,1
,,,,,,,,,,,,,,,,8,2021-11-17_15h03.10.712,Session1,2020.2.10,Win32,60,,,,,,,,,,,,,,,,,,,,,,,,,,,,,,,,,,,,,,,,,,,,,,,,,,,,,,,,,,,,,,,SoundMST/Cat_A.wav,NEW,NA,,,space,5.818,0,58,58,26,1
,,,,,,,,,,,,,,,,8,2021-11-17_15h03.10.712,Session1,2020.2.10,Win32,60,,,,,,,,,,,,,,,,,,,,,,,,,,,,,,,,,,,,,,,,,,,,,,,,,,,,,,,,,,,,,,,SoundMST/Goat_C.wav,NEW,NA,,,space,8.467,0,59,59,12,1
,,,,,,,,,,,,,,,,8,2021-11-17_15h03.10.712,Session1,2020.2.10,Win32,60,,,,,,,,,,,,,,,,,,,,,,,,,,,,,,,,,,,,,,,,,,,,,,,,,,,,,,,,,,,,,,,SoundMST/Pour_F.wav,NEW,NA,,,space,7.684,0,60,60,37,1
,,,,,,,,,,,,,,,,8,2021-11-17_15h03.10.712,Session1,2020.2.10,Win32,60,,,,,,,,,,,,,,,,,,,,,,,,,,,,,,,,,,,,,,,,,,,,,,,,,,,,,,,,,,,,,,,SoundMST/IceDrop.wav,NEW,NA,,,space,6.118,0,61,61,55,1
,,,,,,,,,,,,,,,,8,2021-11-17_15h03.10.712,Session1,2020.2.10,Win32,60,,,,,,,,,,,,,,,,,,,,,,,,,,,,,,,,,,,,,,,,,,,,,,,,,,,,,,,,,,,,,,,SoundMST/Writing_C.wav,SIMILAR,NA,,,space,5.881,0,62,62,64,1
,,,,,,,,,,,,,,,,8,2021-11-17_15h03.10.712,Session1,2020.2.10,Win32,60,,,,,,,,,,,,,,,,,,,,,,,,,,,,,,,,,,,,,,,,,,,,,,,,,,,,,,,,,,,,,,,SoundMST/Sneeze_B.wav,NEW,NA,,,space,3.684,0,63,63,43,1
,,,,,,,,,,,,,,,,8,2021-11-17_15h03.10.712,Session1,2020.2.10,Win32,60,,,,,,,,,,,,,,,,,,,,,,,,,,,,,,,,,,,,,,,,,,,,,,,,,,,,,,,,,,,,,,,SoundMST/Clap_D.wav,SIMILAR,NA,,,space,6.839,0,64,64,81,1
,,,,,,,,,,,,,,,,8,2021-11-17_15h03.10.712,Session1,2020.2.10,Win32,60,,,,,,,,,,,,,,,,,,,,,,,,,,,,,,,,,,,,,,,,,,,,,,,,,,,,,,,,,,,,,,,SoundMST/CarStart_D.wav,SIMILAR,NA,,,space,7.498,0,65,65,65,1
,,,,,,,,,,,,,,,,8,2021-11-17_15h03.10.712,Session1,2020.2.10,Win32,60,,,,,,,,,,,,,,,,,,,,,,,,,,,,,,,,,,,,,,,,,,,,,,,,,,,,,,,,,,,,,,,SoundMST/Piano_C.wav,SIMILAR,NA,,,space,6.32,0,66,66,67,1
,,,,,,,,,,,,,,,,8,2021-11-17_15h03.10.712,Session1,2020.2.10,Win32,60,,,,,,,,,,,,,,,,,,,,,,,,,,,,,,,,,,,,,,,,,,,,,,,,,,,,,,,,,,,,,,,SoundMST/Chicken_A.wav,NEW,NA,,,space,4.783,0,67,67,11,1
,,,,,,,,,,,,,,,,8,2021-11-17_15h03.10.712,Session1,2020.2.10,Win32,60,,,,,,,,,,,,,,,,,,,,,,,,,,,,,,,,,,,,,,,,,,,,,,,,,,,,,,,,,,,,,,,SoundMST/Dog_H.wav,NEW,NA,,,space,5.456,0,68,68,29,1
,,,,,,,,,,,,,,,,8,2021-11-17_15h03.10.712,Session1,2020.2.10,Win32,60,,,,,,,,,,,,,,,,,,,,,,,,,,,,,,,,,,,,,,,,,,,,,,,,,,,,,,,,,,,,,,,SoundMST/Elephant_C.wav,NEW,NA,,,space,5.121,0,69,69,3,1
,,,,,,,,,,,,,,,,8,2021-11-17_15h03.10.712,Session1,2020.2.10,Win32,60,,,,,,,,,,,,,,,,,,,,,,,,,,,,,,,,,,,,,,,,,,,,,,,,,,,,,,,,,,,,,,,SoundMST/Bagpipe.wav,NEW,NA,,,space,5.2,0,70,70,53,1
,,,,,,,,,,,,,,,,8,2021-11-17_15h03.10.712,Session1,2020.2.10,Win32,60,,,,,,,,,,,,,,,,,,,,,,,,,,,,,,,,,,,,,,,,,,,,,,,,,,,,,,,,,,,,,,,SoundMST/Slurp.wav,NEW,NA,,,space,7.872,0,71,71,31,1
,,,,,,,,,,,,,,,,8,2021-11-17_15h03.10.712,Session1,2020.2.10,Win32,60,,,,,,,,,,,,,,,,,,,,,,,,,,,,,,,,,,,,,,,,,,,,,,,,,,,,,,,,,,,,,,,SoundMST/Piano_D.wav,NEW,NA,,,space,5.906,0,72,72,7,1
,,,,,,,,,,,,,,,,8,2021-11-17_15h03.10.712,Session1,2020.2.10,Win32,60,,,,,,,,,,,,,,,,,,,,,,,,,,,,,,,,,,,,,,,,,,,,,,,,,,,,,,,,,,,,,,,SoundMST/Airplane_B.wav,NEW,NA,,,space,11.846,0,73,73,36,1
,,,,,,,,,,,,,,,,8,2021-11-17_15h03.10.712,Session1,2020.2.10,Win32,60,,,,,,,,,,,,,,,,,,,,,,,,,,,,,,,,,,,,,,,,,,,,,,,,,,,,,,,,,,,,,,,SoundMST/PaperRip.wav,NEW,NA,,,space,11.25,0,74,74,56,1
,,,,,,,,,,,,,,,,8,2021-11-17_15h03.10.712,Session1,2020.2.10,Win32,60,,,,,,,,,,,,,,,,,,,,,,,,,,,,,,,,,,,,,,,,,,,,,,,,,,,,,,,,,,,,,,,SoundMST/Howl.wav,NEW,NA,,,space,5.654,0,75,75,33,1
,,,,,,,,,,,,,,,,8,2021-11-17_15h03.10.712,Session1,2020.2.10,Win32,60,,,,,,,,,,,,,,,,,,,,,,,,,,,,,,,,,,,,,,,,,,,,,,,,,,,,,,,,,,,,,,,SoundMST/Helicopter_A.wav,NEW,NA,,,space,5.117,0,76,76,62,1
,,,,,,,,,,,,,,,,8,2021-11-17_15h03.10.712,Session1,2020.2.10,Win32,60,,,,,,,,,,,,,,,,,,,,,,,,,,,,,,,,,,,,,,,,,,,,,,,,,,,,,,,,,,,,,,,SoundMST/Dog_I.wav,SIMILAR,NA,,,space,4.917,0,77,77,77,1
,,,,,,,,,,,,,,,,8,2021-11-17_15h03.10.712,Session1,2020.2.10,Win32,60,,,,,,,,,,,,,,,,,,,,,,,,,,,,,,,,,,,,,,,,,,,,,,,,,,,,,,,,,,,,,,,SoundMST/Footsteps_F.wav,SIMILAR,NA,,,space,7.505,0,78,78,80,1
,,,,,,,,,,,,,,,,8,2021-11-17_15h03.10.712,Session1,2020.2.10,Win32,60,,,,,,,,,,,,,,,,,,,,,,,,,,,,,,,,,,,,,,,,,,,,,,,,,,,,,,,,,,,,,,,SoundMST/Siren_A.wav,SIMILAR,NA,,,space,14.169,0,79,79,83,1
,,,,,,,,,,,,,,,,8,2021-11-17_15h03.10.712,Session1,2020.2.10,Win32,60,,,,,,,,,,,,,,,,,,,,,,,,,,,,,,,,,,,,,,,,,,,,,,,,,,,,,,,,,,,,,,,SoundMST/Cello.wav,NEW,NA,,,space,8.634,0,80,80,8,1
,,,,,,,,,,,,,,,,8,2021-11-17_15h03.10.712,Session1,2020.2.10,Win32,60,,,,,,,,,,,,,,,,,,,,,,,,,,,,,,,,,,,,,,,,,,,,,,,,,,,,,,,,,,,,,,,SoundMST/Cough_J.wav,SIMILAR,NA,,,space,5.265,0,81,81,76,1
,,,,,,,,,,,,,,,,8,2021-11-17_15h03.10.712,Session1,2020.2.10,Win32,60,,,,,,,,,,,,,,,,,,,,,,,,,,,,,,,,,,,,,,,,,,,,,,,,,,,,,,,,,,,,,,,SoundMST/Chime_A.wav,SIMILAR,NA,,,space,5.954,0,82,82,72,1
,,,,,,,,,,,,,,,,8,2021-11-17_15h03.10.712,Session1,2020.2.10,Win32,60,,,,,,,,,,,,,,,,,,,,,,,,,,,,,,,,,,,,,,,,,,,,,,,,,,,,,,,,,,,,,,,SoundMST/Laugh_D.wav,SIMILAR,NA,,,space,5.615,0,83,83,78,1
,,,,,,,,,,,,,,,,8,2021-11-17_15h03.10.712,Session1,2020.2.10,Win32,60,,,,,,,,,,,,,,,,,,,,,,,,,,,,,,,,,,,,,,,,,,,,,,,,,,,,,,,,,,,,,,,SoundMST/Thunder_A.wav,NEW,NA,,,space,7.705,0,84,84,39,1
,,,,,,,,,,,,,,,,8,2021-11-17_15h03.10.712,Session1,2020.2.10,Win32,60,,,,,,,,,,,,,,,,,,,,,,,,,,,,,,,,,,,,,,,,,,,,,,,,,,,,,,,,,,,,,,,SoundMST/Phone_E.wav,SIMILAR,NA,,,space,4.965,0,85,85,70,1
,,,,,,,,,,,,,,,,8,2021-11-17_15h03.10.712,Session1,2020.2.10,Win32,60,,,,,,,,,,,,,,,,,,,,,,,,,,,,,,,,,,,,,,,,,,,,,,,,,,,,,,,,,,,,,,,SoundMST/Faucet_C.wav,SIMILAR,NA,,,space,11.179,0,86,86,73,1
,,,,,,,,,,,,,,,,8,2021-11-17_15h03.10.712,Session1,2020.2.10,Win32,60,,,,,,,,,,,,,,,,,,,,,,,,,,,,,,,,,,,,,,,,,,,,,,,,,,,,,,,,,,,,,,,SoundMST/Sleighbells_B.wav,NEW,NA,,,space,9.985,0,87,87,25,1
>>>>>>> 3c6b67de205bc033bdd7ba55cb73065ed20c0e27
,,,,,,,,,,,,,,,,8,2021-11-17_15h03.10.712,Session1,2020.2.10,Win32,60,,,,,,,,,,,,,,,,,,,,,space,17.648,,,,,,,,,,,,,,,,,,,,,,,,,,,,,,,,,,,,,,,,,,,,,,,,,,,,
